{
  "resourceType": "Bundle",
  "type": "batch",
  "entry": [
    {
      "fullUrl": "urn:uuid:1dd10047-2207-4eac-a993-0f706c88be5d",
      "resource": {
        "resourceType": "Composition",
        "id": "1dd10047-2207-4eac-a993-0f706c88be5d",
        "meta": {
          "profile": [
            "http://hl7.org/fhir/us/ecr/StructureDefinition/eicr-composition"
          ],
          "source": [
            "ecr"
          ]
        },
        "identifier": [
          {
            "use": "official",
            "type": {
              "coding": [
                {
                  "code": "55751-2",
                  "display": "Initial Public Health Case Report",
                  "system": "http://loinc.org"
                }
              ]
            },
            "value": "36959489|65117030"
          }
        ],
        "extension": [
          {
            "url": "http://hl7.org/fhir/StructureDefinition/composition-clinicaldocument-versionNumber",
            "valueString": "2"
          }
        ],
        "status": "final",
        "type": {
          "coding": [
            {
              "code": "55751-2",
              "display": "Initial Public Health Case Report",
              "system": "http://loinc.org"
            }
          ]
        },
        "date": "2022-05-14T12:56:38Z",
        "title": "Initial Public Health Case Report",
        "confidentiality": "N",
        "section": [
          {
            "id": "e4d19209-e7f4-4c92-3974-ad75d30f86f9",
            "title": "PROBLEMS - DIAGNOSES",
            "text": {
              "status": "generated",
              "div": "<table><thead><tr><th>Problem or Diagnosis</th><th>Problem Status</th></tr></thead><tbody><tr><td>Unknown</td><td>Active</td></tr></tbody></table>"
            },
            "code": {
              "coding": [
                {
                  "code": "11450-4",
                  "display": "PROBLEM LIST",
                  "system": "http://loinc.org"
                }
              ]
            },
            "mode": "snapshot",
            "entry": [
              {
                "reference": "Condition/f6192ee0-0f5e-de9c-e1f5-b3733e98f39b"
              }
            ]
          },
          {
            "id": "7660061e-2891-3532-b8db-63fca133bca6",
            "title": "ENCOUNTERS",
            "text": {
              "status": "generated",
              "div": "<table><thead><tr><th>Encounter Reason</th><th>Date of Encounter</th></tr></thead><tbody><tr><td>Emergency</td><td>20220513072500+0000</td></tr></tbody></table>"
            },
            "code": {
              "coding": [
                {
                  "code": "46240-8",
                  "display": "History of Encounters",
                  "system": "http://loinc.org"
                }
              ]
            },
            "mode": "snapshot"
          },
          {
            "id": "a7d62592-7456-6cc1-b9eb-ed2ffe81780a",
            "title": "RESULTS",
            "text": {
              "status": "generated",
              "div": "<table><thead><tr><th>Lab Test Name</th><th>Lab Test Result Value</th><th>Lab Test Result Date</th></tr></thead><tbody><tr><td>Ur Mucous</td><td>NONE /LPF</td><td></td></tr><tr><td>Ur Squam Epithelial</td><td>1|http://unitsofmeasure.org|/HPF</td><td></td></tr><tr><td>Ur WBC</td><td>1|http://unitsofmeasure.org|/HPF</td><td></td></tr><tr><td>Ur RBC</td><td>2|http://unitsofmeasure.org|/HPF</td><td></td></tr><tr><td>Ur Bacteria</td><td>None Seen /HPF</td><td></td></tr><tr><td>Symptomatic as defined by CDC?</td><td>No</td><td></td></tr><tr><td>In ICU?</td><td>No</td><td></td></tr><tr><td>Group care resident?</td><td>No</td><td></td></tr><tr><td>First test?</td><td>UNK</td><td></td></tr><tr><td>Employed in healthcare?</td><td>No</td><td></td></tr><tr><td>Date of onset?</td><td>UNK</td><td></td></tr><tr><td>SARS-CoV-2 Interp:</td><td>Unknown</td><td></td></tr><tr><td>SARS-CoV-2 PCR</td><td>Negative</td><td></td></tr><tr><td>Flu B PCR</td><td>Not Detected</td><td></td></tr><tr><td>Flu A PCR</td><td>Not Detected</td><td></td></tr><tr><td>Ur pH</td><td>6.0</td><td></td></tr><tr><td>Ur Spec Grav</td><td>1.020 mg/dL</td><td></td></tr><tr><td>Ur Urobilinogen</td><td>0.2 EU/dL</td><td></td></tr><tr><td>Ur Blood</td><td>Trace-lysed</td><td></td></tr><tr><td>Ur Bili</td><td>Negative</td><td></td></tr><tr><td>Ur Leuk Est</td><td>Negative</td><td></td></tr><tr><td>Ur Protein</td><td>Negative mg/dL</td><td></td></tr><tr><td>Ur Nitrite</td><td>Negative</td><td></td></tr><tr><td>Ur Ketones</td><td>Negative mg/dL</td><td></td></tr><tr><td>UR Glucose</td><td>Negative mg/dL</td><td></td></tr></tbody></table>"
            },
            "code": {
              "coding": [
                {
                  "code": "30954-2",
                  "display": "RESULTS",
                  "system": "http://loinc.org"
                }
              ]
            },
            "mode": "snapshot",
            "entry": [
              {
                "reference": "Observation/449f4d35-ede1-d54a-ee8b-85247ab0b6e6"
              },
              {
                "reference": "Observation/6ae97d71-62a8-ebc2-fc80-b4a67e742ecb"
              },
              {
                "reference": "Observation/69f90668-7f73-3170-bfb2-049587dfcd9e"
              },
              {
                "reference": "Observation/378e9d76-db69-45bb-06df-d63f96e10619"
              },
              {
                "reference": "Observation/a7b1cb64-7121-3dfe-8605-889d1ff3511d"
              },
              {
                "reference": "Observation/81503091-497e-5d02-4115-a9b94e3f3c87"
              },
              {
                "reference": "Observation/ac4992a1-cbfe-dfcf-5f6b-ca49aa06cddd"
              },
              {
                "reference": "Observation/aeeb7e8a-7b73-55f7-148e-4fdfc078285b"
              },
              {
                "reference": "Observation/3d8742ee-44b7-2bc3-1515-d1c4771e6fb2"
              },
              {
                "reference": "Observation/c5c046e4-b0eb-3210-114c-7be495e24a3f"
              },
              {
                "reference": "Observation/546deab4-bca2-d056-24e3-d5bcde20d975"
              },
              {
                "reference": "Observation/2e39b82b-8663-164f-11a6-31fdbba093b7"
              },
              {
                "reference": "Observation/ed81d103-56dc-f9b9-ccc6-315503cb75b8"
              },
              {
                "reference": "Observation/b055bbba-9778-0f5d-1ed4-0415c127aeec"
              },
              {
                "reference": "Observation/9f30a6e1-c3d8-bef3-df89-b7c64b9bada4"
              },
              {
                "reference": "Observation/8347a4a4-68d7-c939-a39a-1c83ade11da9"
              },
              {
                "reference": "Observation/247c7366-60be-2ba4-1667-dc4a2cffdcdf"
              },
              {
                "reference": "Observation/5d87c713-c202-2486-c0c2-5d6d691af42f"
              },
              {
                "reference": "Observation/a1993689-9c3a-6986-9d21-e7515972f8c2"
              },
              {
                "reference": "Observation/0909ed94-9369-57cb-60a3-353c08947a8a"
              },
              {
                "reference": "Observation/304a0b98-17f1-b855-6f0f-bb507f3045ad"
              },
              {
                "reference": "Observation/b7f26954-ec35-0dbd-da80-48b380621693"
              },
              {
                "reference": "Observation/83a07fb4-b3c1-118a-ac11-a3232785ac3b"
              },
              {
                "reference": "Observation/f73f0c43-7283-9ace-b129-68555b0eef89"
              },
              {
                "reference": "Observation/eb888a57-1652-152f-705c-6014061a43e0"
              }
            ]
          },
          {
            "id": "b4994b93-a4e6-b688-1327-a65a269c568d",
            "title": "Medications Administered",
            "text": {
              "status": "generated",
              "div": "<table><thead><tr><th>Medication Name</th><th>Medication Start Date</th></tr></thead><tbody><tr><td>acetaminophen (Tylenol Infant's 160 mg/5 mL oral suspension)</td><td>20220513094400+0000</td></tr><tr><td>ibuprofen (ibuprofen 100 mg/5 mL oral suspension)</td><td>20220513094400+0000</td></tr><tr><td>azithromycin (azithromycin 200 mg/5 mL oral liquid)</td><td>20220513094200+0000</td></tr><tr><td>prednisoLONE (Orapred 15 mg/5 mL oral liquid)</td><td>20220513094300+0000</td></tr><tr><td>acetaminophen (Tylenol)</td><td>20220513090400+0000</td></tr><tr><td>azithromycin</td><td>20220513090200+0000</td></tr><tr><td>ibuprofen</td><td>20220513100000+0000</td></tr></tbody></table>"
            },
            "code": {
              "coding": [
                {
                  "code": "29549-3",
                  "display": "Medications Administered",
                  "system": "http://loinc.org"
                }
              ]
            },
            "mode": "snapshot"
          },
          {
            "id": "dd08df91-869b-46df-dd36-c5c0f2ad2eae",
            "title": "IMMUNIZATIONS",
            "text": {
              "status": "generated",
              "div": "No ImmunizationInformation"
            },
            "code": {
              "coding": [
                {
                  "code": "11369-6",
                  "display": "History of immunizations",
                  "system": "http://loinc.org"
                }
              ]
            },
            "mode": "snapshot"
          },
          {
            "id": "503ddd18-aa2e-f406-3334-2b289cc7a1bd",
            "title": "SOCIAL HISTORY",
            "text": {
              "status": "generated",
              "div": "<table><thead><tr><th>Social History Observation</th><th>Social History Observation Result</th></tr></thead><tbody><tr><td>Birth Sex</td><td>M</td></tr><tr><td>Travel History</td><td>COVID- 19 Testing Reason-Screening</td></tr><tr><td>Travel History</td><td>Pregnancy Status-Not applicable (qualifier value)</td></tr></tbody></table>"
            },
            "code": {
              "coding": [
                {
                  "code": "29762-2",
                  "display": "Social History",
                  "system": "http://loinc.org"
                }
              ]
            },
            "mode": "snapshot",
            "entry": [
              {
                "reference": "Observation/334a7b0b-e775-63c1-3461-49e6c5e1e3c1"
              },
              {
                "reference": "Observation/c368a59d-afcf-2b68-0ed6-164deb6eddfd"
              }
            ]
          },
          {
            "id": "7dbd51e8-1c15-8cfa-cbce-f6f4b9a1ed5d",
            "title": "Plan of Treatment",
            "text": {
              "status": "generated",
              "div": "No Plan Of Treatment Information"
            },
            "code": {
              "coding": [
                {
                  "code": "18776-5",
                  "display": "Treatment Plan",
                  "system": "http://loinc.org"
                }
              ]
            },
            "mode": "snapshot"
          },
          {
            "id": "1f7f0fb5-56ac-daea-0962-3334f085966f",
            "title": "History of Present Illness",
            "text": {
              "status": "generated",
              "div": "<table><thead><tr><th>Narrative Text</th></tr></thead><tbody><tr><td>Fever</td></tr><tr><td>Cough</td></tr><tr><td>Encounter for medical screening examination</td></tr></tbody></table>"
            },
            "code": {
              "coding": [
                {
                  "code": "10164-2",
                  "display": "History of Present Illness",
                  "system": "http://loinc.org"
                }
              ]
            },
            "mode": "snapshot"
          },
          {
            "id": "5143951a-85ed-1b18-e4ea-304982129ffb",
            "title": "Reason For Visit",
            "text": {
              "status": "generated",
              "div": "<table><thead><tr><th>text</th></tr></thead><tbody><tr><td>FEVER</td></tr></tbody></table>"
            },
            "code": {
              "coding": [
                {
                  "code": "29299-5",
                  "display": "Reason For Visit",
                  "system": "http://loinc.org"
                }
              ]
            },
            "mode": "snapshot"
          },
          {
            "id": "915ea4b0-0f6f-a969-20d1-7c9d6bc2acfd",
            "title": "Reportability Response Information Section",
            "text": {
              "status": "generated",
              "div": "<div xmlns=\"http://www.w3.org/1999/xhtml\">Reportability Response Information Section</div>"
            },
            "extension": [
              {
                "url": "http://hl7.org/fhir/us/ecr/StructureDefinition/rr-composition",
                "valueIdentifier": {
                  "use": "official",
                  "type": {
                    "coding": [
                      {
                        "code": "88085-6",
                        "display": "Reportability response report Document Public health",
                        "system": "http://loinc.org"
                      }
                    ]
                  },
                  "value": "0e87b7a5-955c-4575-9def-f99f96e703ab"
                }
              },
              {
                "url": "http://hl7.org/fhir/us/ecr/StructureDefinition/rr-eicr-processing-status-extension",
                "valueCodeableConcept": {
                  "coding": [
                    {
                      "code": "RRVS19",
                      "display": "eICR processed",
                      "system": "urn:oid:2.16.840.1.114222.4.5.274"
                    }
                  ]
                }
              }
            ],
            "code": {
              "coding": [
                {
                  "code": "88085-6",
                  "display": "Reportability response report Document Public health",
                  "system": "http://loinc.org"
                }
              ]
            },
            "entry": [
              {
                "display": "Relevant Reportable Condition Observation - Influenza caused by Influenza A virus subtype H5N1 (disorder)",
                "reference": "Observation/e1530c36-cfd5-4bb4-848f-0ac5d8090d03"
              }
            ]
          }
        ],
        "subject": {
          "reference": "Patient/a7262cf8-3702-4605-9548-cfff3f9cab75"
        },
        "encounter": {
          "reference": "Encounter/1a016589-f03e-c216-eb37-306903e8f437"
        },
        "custodian": {
          "reference": "Organization/91c4d2ba-e324-5b1a-a4cb-84d9690511d3"
        },
        "author": [
          {
            "reference": "Practitioner/79842b6e-724b-8d57-dd2a-8d4b915f0558"
          }
        ]
      },
      "request": {
        "method": "PUT",
        "url": "Composition/1dd10047-2207-4eac-a993-0f706c88be5d"
      }
    },
    {
      "fullUrl": "urn:uuid:1a016589-f03e-c216-eb37-306903e8f437",
      "resource": {
        "resourceType": "Encounter",
        "id": "1a016589-f03e-c216-eb37-306903e8f437",
        "status": "unknown",
        "class": {
          "code": "E",
          "display": "Emergency",
          "system": "urn:oid:2.16.840.1.113883.18.5"
        },
        "identifier": [
          {
            "system": "urn:oid:2.16.840.1.113883",
            "value": "Encounter/65117030/_history/22"
          },
          {
            "system": "urn:oid:2.16.840.1.113883.3.3316.200",
            "value": "3012591990"
          }
        ],
        "period": {
          "start": "2022-05-13T07:25:00Z",
          "end": "2022-05-13T09:57:00Z"
        },
        "subject": {
          "reference": "Patient/a7262cf8-3702-4605-9548-cfff3f9cab75"
        },
        "location": [
          {
            "id": "2.16.840.1.113883.4.6",
            "location": {
              "reference": "Location/6bd4f334-8624-cb56-3daf-13966d57a8d3",
              "display": "PRM- Palmdale Regional Medical Center"
            },
            "extension": [
              {
                "url": "http://build.fhir.org/ig/HL7/case-reporting/StructureDefinition-us-ph-location-definitions.html#Location.type",
                "valueCodeableConcept": {
                  "coding": [
                    {
                      "code": "prov",
                      "display": "Healthcare Provider",
                      "system": "urn:oid:2.16.840.1.113883.4.642.3.414"
                    }
                  ]
                }
              }
            ]
          }
        ],
        "participant": [
          {
            "type": [
              {
                "coding": [
                  {
                    "system": "http://terminology.hl7.org/CodeSystem/v3-ParticipationType",
                    "code": "ATND"
                  }
                ]
              }
            ],
            "individual": {
              "reference": "Practitioner/79842b6e-724b-8d57-dd2a-8d4b915f0558"
            }
          }
        ],
        "meta": {
          "source": [
            "ecr"
          ]
        }
      },
      "request": {
        "method": "PUT",
        "url": "Encounter/1a016589-f03e-c216-eb37-306903e8f437"
      }
    },
    {
      "fullUrl": "urn:uuid:6bd4f334-8624-cb56-3daf-13966d57a8d3",
      "resource": {
        "resourceType": "Location",
        "id": "6bd4f334-8624-cb56-3daf-13966d57a8d3",
        "identifier": [
          {
            "value": "2.16.840.1.113883.4.6"
          }
        ],
        "name": "PRM- Palmdale Regional Medical Center",
        "address": {
          "line": [
            "38600 Medical Center Drive"
          ],
          "city": "Palmdale",
          "state": "CA",
          "country": "USA",
          "postalCode": "93551"
        },
        "telecom": [
          {
            "system": "phone",
            "value": "(661)382-5000",
            "use": "work"
          }
        ],
        "type": [
          {
            "coding": [
              {
                "code": "prov",
                "display": "Healthcare Provider",
                "system": "urn:oid:2.16.840.1.113883.4.642.3.414"
              }
            ]
          }
        ],
        "meta": {
          "source": [
            "ecr"
          ]
        }
      },
      "request": {
        "method": "PUT",
        "url": "Location/6bd4f334-8624-cb56-3daf-13966d57a8d3"
      }
    },
    {
      "fullUrl": "urn:uuid:79842b6e-724b-8d57-dd2a-8d4b915f0558",
      "resource": {
        "resourceType": "Practitioner",
        "id": "79842b6e-724b-8d57-dd2a-8d4b915f0558",
        "meta": {
          "profile": [
            "http://hl7.org/fhir/us/core/StructureDefinition/us-core-practitioner"
          ],
          "source": [
            "ecr"
          ]
        },
        "extension": [
          {
            "url": "http://hl7.org/fhir/StructureDefinition/_datatype",
            "valueString": "Responsible Party"
          }
        ],
        "identifier": [
          {
            "system": "urn:ietf:rfc:3986",
            "value": "urn:uuid:2.16.840.1.113883.4.6"
          }
        ],
        "name": [
          {
            "use": "usual",
            "text": "PRM- Palmdale Regional Medical Center"
          },
          {
            "family": "Physician",
            "given": [
              "ED Billing",
              "Discharge"
            ]
          }
        ],
        "address": [
          {
            "line": [
              "38600 Medical Center Drive"
            ],
            "city": "Palmdale",
            "state": "CA",
            "country": "USA",
            "postalCode": "93551"
          }
        ],
        "telecom": [
          {
            "system": "phone",
            "value": "(661)382-5000",
            "use": "work"
          }
        ]
      },
      "request": {
        "method": "PUT",
        "url": "Practitioner/79842b6e-724b-8d57-dd2a-8d4b915f0558"
      }
    },
    {
      "fullUrl": "urn:uuid:f87de327-7272-42ac-012d-58904caf7ef1",
      "resource": {
        "resourceType": "Organization",
        "id": "f87de327-7272-42ac-012d-58904caf7ef1",
        "meta": {
          "profile": [
            "http://hl7.org/fhir/us/ecr/StructureDefinition/rr-routing-entity-organization"
          ],
          "source": [
            "ecr"
          ]
        },
        "active": true,
        "type": [
          {
            "coding": [
              {
                "system": "urn:oid:2.16.840.1.114222.4.5.232",
                "code": "RR7",
                "display": "Routing Entity"
              }
            ]
          }
        ],
        "name": "Los Angeles County Department of Public Health"
      },
      "request": {
        "method": "PUT",
        "url": "Organization/f87de327-7272-42ac-012d-58904caf7ef1"
      }
    },
    {
      "fullUrl": "urn:uuid:e1530c36-cfd5-4bb4-848f-0ac5d8090d03",
      "resource": {
        "resourceType": "Observation",
        "id": "e1530c36-cfd5-4bb4-848f-0ac5d8090d03",
        "meta": {
          "profile": [
            "http://hl7.org/fhir/us/ecr/StructureDefinition/rr-reportability-information-observation"
          ],
          "source": [
            "ecr"
          ]
        },
        "identifier": [
          {
            "system": "urn:ietf:rfc:3986",
            "value": "urn:uuid:e1530c36-cfd5-4bb4-848f-0ac5d8090d03"
          }
        ],
        "status": "final",
        "code": {
          "coding": [
            {
              "code": "64572001",
              "display": "Condition",
              "system": "http://snomed.info/sct"
            },
            {
              "code": "75323-6",
              "display": "Condition",
              "system": "http://loinc.org"
            }
          ]
        },
        "valueCodeableConcept": {
          "coding": [
            {
              "code": "772828001",
              "display": "Influenza caused by Influenza A virus subtype H5N1 (disorder)",
              "system": "http://snomed.info/sct"
            }
          ]
        },
        "extension": [
          {
            "url": "http://hl7.org/fhir/us/ecr/StructureDefinition/us-ph-determination-of-reportability-rule-extension",
            "valueString": "Cough"
          },
          {
            "url": "http://hl7.org/fhir/us/ecr/StructureDefinition/us-ph-determination-of-reportability-rule-extension",
            "valueString": "Fever (Temperature > 37.8 °C [100 °F])"
          }
        ],
        "performer": [
          {
            "reference": "Organization/f87de327-7272-42ac-012d-58904caf7ef1",
            "display": "Los Angeles County Department of Public Health"
          }
        ]
      },
      "request": {
        "method": "PUT",
        "url": "Observation/e1530c36-cfd5-4bb4-848f-0ac5d8090d03"
      }
    },
    {
      "fullUrl": "urn:uuid:91c4d2ba-e324-5b1a-a4cb-84d9690511d3",
      "resource": {
        "resourceType": "Organization",
        "id": "91c4d2ba-e324-5b1a-a4cb-84d9690511d3",
        "identifier": [
          {
            "system": "urn:oid:2.16.840.1.113883.3.3316.200",
            "value": "PRM"
          }
        ],
        "name": "PRM- Palmdale Regional Medical Center",
        "address": [
          {
            "line": [
              "38600 Medical Center Drive"
            ],
            "city": "Palmdale",
            "state": "CA",
            "country": "USA",
            "postalCode": "93551"
          }
        ],
        "telecom": [
          {
            "system": "phone",
            "value": "(661)382-5000",
            "use": "work"
          }
        ],
        "meta": {
          "source": [
            "ecr"
          ]
        }
      },
      "request": {
        "method": "PUT",
        "url": "Organization/91c4d2ba-e324-5b1a-a4cb-84d9690511d3"
      }
    },
    {
      "fullUrl": "urn:uuid:a7262cf8-3702-4605-9548-cfff3f9cab75",
      "resource": {
        "resourceType": "Patient",
        "id": "a7262cf8-3702-4605-9548-cfff3f9cab75",
        "meta": {
          "profile": [
            "http://hl7.org/fhir/us/core/StructureDefinition/us-core-patient"
          ],
          "source": [
            "ecr"
          ]
        },
        "identifier": [
          {
            "system": "urn:oid:2.16.840.1.113883.3.3316.100",
            "value": "10308625"
          }
        ],
        "name": [
          {
            "family": "CASTILLO",
            "given": [
              "ABEL"
            ]
          }
        ],
        "birthDate": "2015-04-15",
        "gender": "male",
        "extension": [
          {
            "url": "http://hl7.org/fhir/us/core/StructureDefinition/us-core-race",
            "extension": [
              {
                "url": "ombCategory",
                "valueCoding": {
                  "code": "2054-5",
                  "display": "Black or African American"
                }
              },
              {
                "url": "text",
                "valueString": "Black or African American"
              }
            ]
          },
          {
            "url": "http://hl7.org/fhir/us/core/StructureDefinition/us-core-ethnicity",
            "extension": [
              {
                "url": "ombCategory",
                "valueCoding": {
                  "code": "2135-2",
                  "display": "Hispanic or Latino"
                }
              },
              {
                "url": "text",
                "valueString": "Hispanic or Latino"
              }
            ]
          },
          {
            "url": "http://hl7.org/fhir/us/core/StructureDefinition/us-core-birthsex",
            "extension": [
              {
                "url": "value",
                "valueCodeableConcept": {
                  "coding": [
                    {
                      "code": "M",
                      "display": "Male",
                      "system": "urn:oid:2.16.840.1.113883.5.1"
                    }
                  ]
                }
              }
            ]
          }
        ],
        "address": [
          {
            "line": [
              "1050 CARPENTER ST"
            ],
            "city": "EDWARDS",
            "state": "CA",
            "country": "US",
            "postalCode": "93523-2800"
          }
        ],
        "telecom": [
          {
            "system": "phone",
            "value": "(818)419-5968",
            "use": "home"
          },
          {
            "system": "email",
            "value": "MELLY.C.A.16@GMAIL.COM"
          }
        ],
        "communication": [
          {
            "language": {
              "coding": [
                {
                  "system": "urn:ietf:bcp:47",
                  "code": "en",
                  "display": "English"
                }
              ]
            }
          }
        ]
      },
      "request": {
        "method": "PUT",
        "url": "Patient/a7262cf8-3702-4605-9548-cfff3f9cab75"
      }
    },
    {
      "fullUrl": "urn:uuid:4713bd73-65ae-4ac1-1c7b-4d80465bade4",
      "resource": {
        "resourceType": "DiagnosticReport",
        "id": "4713bd73-65ae-4ac1-1c7b-4d80465bade4",
        "identifier": [
          {
            "system": "urn:ietf:rfc:3986",
            "value": "urn:uuid:ff1315b1-82ae-4bba-b2ad-b7fa2c6df609"
          }
        ],
        "status": "final",
        "code": {
          "coding": [
            {
              "code": "8247-9",
              "system": "http://loinc.org"
            }
          ]
        },
        "subject": {
          "reference": "Patient/a7262cf8-3702-4605-9548-cfff3f9cab75"
        },
        "result": [
          {
            "reference": "Observation/449f4d35-ede1-d54a-ee8b-85247ab0b6e6"
          }
        ],
        "meta": {
          "source": [
            "ecr"
          ]
        }
      },
      "request": {
        "method": "PUT",
        "url": "DiagnosticReport/4713bd73-65ae-4ac1-1c7b-4d80465bade4"
      }
    },
    {
      "fullUrl": "urn:uuid:449f4d35-ede1-d54a-ee8b-85247ab0b6e6",
      "resource": {
        "resourceType": "Observation",
        "id": "449f4d35-ede1-d54a-ee8b-85247ab0b6e6",
        "meta": {
          "profile": [
            "http://hl7.org/fhir/us/core/StructureDefinition/us-core-observationresults"
          ],
          "source": [
            "ecr"
          ]
        },
        "identifier": [
          {
            "system": "urn:oid:2.16.840.1.113883",
            "value": "https://fhir-ehr.cerner.com/r4/da0b5d99-573c-4f5e-aaf6-8d39fa93d033/Observation/M-19459292944/_history/1"
          }
        ],
        "category": [
          {
            "coding": [
              {
                "system": "http://terminology.hl7.org/CodeSystem/observation-category",
                "code": "laboratory"
              }
            ]
          }
        ],
        "status": "final",
        "code": {
          "coding": [
            {
              "code": "8247-9",
              "system": "http://loinc.org"
            }
          ]
        },
        "effectiveDateTime": "2022-05-13T07:47:00Z",
        "valueString": "NONE /LPF",
        "subject": {
          "reference": "Patient/a7262cf8-3702-4605-9548-cfff3f9cab75"
        }
      },
      "request": {
        "method": "PUT",
        "url": "Observation/449f4d35-ede1-d54a-ee8b-85247ab0b6e6"
      }
    },
    {
      "fullUrl": "urn:uuid:ae7434f5-bc73-901b-efd1-9e6f134f5e8b",
      "resource": {
        "resourceType": "DiagnosticReport",
        "id": "ae7434f5-bc73-901b-efd1-9e6f134f5e8b",
        "identifier": [
          {
            "system": "urn:ietf:rfc:3986",
            "value": "urn:uuid:058cd367-c2ac-4a60-96b3-e63cc19366b1"
          }
        ],
        "status": "final",
        "code": {
          "coding": [
            {
              "code": "11277-1",
              "system": "http://loinc.org"
            }
          ]
        },
        "subject": {
          "reference": "Patient/a7262cf8-3702-4605-9548-cfff3f9cab75"
        },
        "result": [
          {
            "reference": "Observation/6ae97d71-62a8-ebc2-fc80-b4a67e742ecb"
          }
        ],
        "meta": {
          "source": [
            "ecr"
          ]
        }
      },
      "request": {
        "method": "PUT",
        "url": "DiagnosticReport/ae7434f5-bc73-901b-efd1-9e6f134f5e8b"
      }
    },
    {
      "fullUrl": "urn:uuid:6ae97d71-62a8-ebc2-fc80-b4a67e742ecb",
      "resource": {
        "resourceType": "Observation",
        "id": "6ae97d71-62a8-ebc2-fc80-b4a67e742ecb",
        "meta": {
          "profile": [
            "http://hl7.org/fhir/us/core/StructureDefinition/us-core-observationresults"
          ],
          "source": [
            "ecr"
          ]
        },
        "identifier": [
          {
            "system": "urn:oid:2.16.840.1.113883",
            "value": "https://fhir-ehr.cerner.com/r4/da0b5d99-573c-4f5e-aaf6-8d39fa93d033/Observation/M-19459292940/_history/1"
          }
        ],
        "category": [
          {
            "coding": [
              {
                "system": "http://terminology.hl7.org/CodeSystem/observation-category",
                "code": "laboratory"
              }
            ]
          }
        ],
        "status": "final",
        "code": {
          "coding": [
            {
              "code": "11277-1",
              "system": "http://loinc.org"
            }
          ]
        },
        "effectiveDateTime": "2022-05-13T07:47:00Z",
        "valueQuantity": {
          "value": 1,
          "unit": "/HPF"
        },
        "interpretation": [
          {
            "coding": [
              {
                "code": "N",
                "display": "Normal",
                "system": "http://terminology.hl7.org/CodeSystem/v3-ObservationInterpretation"
              }
            ]
          }
        ],
        "subject": {
          "reference": "Patient/a7262cf8-3702-4605-9548-cfff3f9cab75"
        }
      },
      "request": {
        "method": "PUT",
        "url": "Observation/6ae97d71-62a8-ebc2-fc80-b4a67e742ecb"
      }
    },
    {
      "fullUrl": "urn:uuid:7d9cc2bd-5fe8-0df1-ab5b-5a2719c10b70",
      "resource": {
        "resourceType": "DiagnosticReport",
        "id": "7d9cc2bd-5fe8-0df1-ab5b-5a2719c10b70",
        "identifier": [
          {
            "system": "urn:ietf:rfc:3986",
            "value": "urn:uuid:0eaa692c-917c-4e3f-ac8a-0cb281519fa6"
          }
        ],
        "status": "final",
        "code": {
          "coding": [
            {
              "code": "5821-4",
              "system": "http://loinc.org"
            }
          ]
        },
        "subject": {
          "reference": "Patient/a7262cf8-3702-4605-9548-cfff3f9cab75"
        },
        "result": [
          {
            "reference": "Observation/69f90668-7f73-3170-bfb2-049587dfcd9e"
          }
        ],
        "meta": {
          "source": [
            "ecr"
          ]
        }
      },
      "request": {
        "method": "PUT",
        "url": "DiagnosticReport/7d9cc2bd-5fe8-0df1-ab5b-5a2719c10b70"
      }
    },
    {
      "fullUrl": "urn:uuid:69f90668-7f73-3170-bfb2-049587dfcd9e",
      "resource": {
        "resourceType": "Observation",
        "id": "69f90668-7f73-3170-bfb2-049587dfcd9e",
        "meta": {
          "profile": [
            "http://hl7.org/fhir/us/core/StructureDefinition/us-core-observationresults"
          ],
          "source": [
            "ecr"
          ]
        },
        "identifier": [
          {
            "system": "urn:oid:2.16.840.1.113883",
            "value": "https://fhir-ehr.cerner.com/r4/da0b5d99-573c-4f5e-aaf6-8d39fa93d033/Observation/M-19459292936/_history/1"
          }
        ],
        "category": [
          {
            "coding": [
              {
                "system": "http://terminology.hl7.org/CodeSystem/observation-category",
                "code": "laboratory"
              }
            ]
          }
        ],
        "status": "final",
        "code": {
          "coding": [
            {
              "code": "5821-4",
              "system": "http://loinc.org"
            }
          ]
        },
        "effectiveDateTime": "2022-05-13T07:47:00Z",
        "valueQuantity": {
          "value": 1,
          "unit": "/HPF"
        },
        "interpretation": [
          {
            "coding": [
              {
                "code": "N",
                "display": "Normal",
                "system": "http://terminology.hl7.org/CodeSystem/v3-ObservationInterpretation"
              }
            ]
          }
        ],
        "subject": {
          "reference": "Patient/a7262cf8-3702-4605-9548-cfff3f9cab75"
        }
      },
      "request": {
        "method": "PUT",
        "url": "Observation/69f90668-7f73-3170-bfb2-049587dfcd9e"
      }
    },
    {
      "fullUrl": "urn:uuid:a5d26ead-694d-6199-0406-2b043fae0c7e",
      "resource": {
        "resourceType": "DiagnosticReport",
        "id": "a5d26ead-694d-6199-0406-2b043fae0c7e",
        "identifier": [
          {
            "system": "urn:ietf:rfc:3986",
            "value": "urn:uuid:9ee90a5e-72b7-4c76-86c8-ad30dbb004c3"
          }
        ],
        "status": "final",
        "code": {
          "coding": [
            {
              "code": "13945-1",
              "system": "http://loinc.org"
            }
          ]
        },
        "subject": {
          "reference": "Patient/a7262cf8-3702-4605-9548-cfff3f9cab75"
        },
        "result": [
          {
            "reference": "Observation/378e9d76-db69-45bb-06df-d63f96e10619"
          }
        ],
        "meta": {
          "source": [
            "ecr"
          ]
        }
      },
      "request": {
        "method": "PUT",
        "url": "DiagnosticReport/a5d26ead-694d-6199-0406-2b043fae0c7e"
      }
    },
    {
      "fullUrl": "urn:uuid:378e9d76-db69-45bb-06df-d63f96e10619",
      "resource": {
        "resourceType": "Observation",
        "id": "378e9d76-db69-45bb-06df-d63f96e10619",
        "meta": {
          "profile": [
            "http://hl7.org/fhir/us/core/StructureDefinition/us-core-observationresults"
          ],
          "source": [
            "ecr"
          ]
        },
        "identifier": [
          {
            "system": "urn:oid:2.16.840.1.113883",
            "value": "https://fhir-ehr.cerner.com/r4/da0b5d99-573c-4f5e-aaf6-8d39fa93d033/Observation/M-19459292938/_history/1"
          }
        ],
        "category": [
          {
            "coding": [
              {
                "system": "http://terminology.hl7.org/CodeSystem/observation-category",
                "code": "laboratory"
              }
            ]
          }
        ],
        "status": "final",
        "code": {
          "coding": [
            {
              "code": "13945-1",
              "system": "http://loinc.org"
            }
          ]
        },
        "effectiveDateTime": "2022-05-13T07:47:00Z",
        "valueQuantity": {
          "value": 2,
          "unit": "/HPF"
        },
        "interpretation": [
          {
            "coding": [
              {
                "code": "H",
                "display": "High",
                "system": "http://terminology.hl7.org/CodeSystem/v3-ObservationInterpretation"
              }
            ]
          }
        ],
        "subject": {
          "reference": "Patient/a7262cf8-3702-4605-9548-cfff3f9cab75"
        }
      },
      "request": {
        "method": "PUT",
        "url": "Observation/378e9d76-db69-45bb-06df-d63f96e10619"
      }
    },
    {
      "fullUrl": "urn:uuid:48f1b3a3-dff2-36e3-f729-e444ae9b052a",
      "resource": {
        "resourceType": "DiagnosticReport",
        "id": "48f1b3a3-dff2-36e3-f729-e444ae9b052a",
        "identifier": [
          {
            "system": "urn:ietf:rfc:3986",
            "value": "urn:uuid:e13d84f5-5613-4492-8837-a2fd2fe5e38a"
          }
        ],
        "status": "final",
        "code": {
          "coding": [
            {
              "code": "5769-5",
              "system": "http://loinc.org"
            }
          ]
        },
        "subject": {
          "reference": "Patient/a7262cf8-3702-4605-9548-cfff3f9cab75"
        },
        "result": [
          {
            "reference": "Observation/a7b1cb64-7121-3dfe-8605-889d1ff3511d"
          }
        ],
        "meta": {
          "source": [
            "ecr"
          ]
        }
      },
      "request": {
        "method": "PUT",
        "url": "DiagnosticReport/48f1b3a3-dff2-36e3-f729-e444ae9b052a"
      }
    },
    {
      "fullUrl": "urn:uuid:a7b1cb64-7121-3dfe-8605-889d1ff3511d",
      "resource": {
        "resourceType": "Observation",
        "id": "a7b1cb64-7121-3dfe-8605-889d1ff3511d",
        "meta": {
          "profile": [
            "http://hl7.org/fhir/us/core/StructureDefinition/us-core-observationresults"
          ],
          "source": [
            "ecr"
          ]
        },
        "identifier": [
          {
            "system": "urn:oid:2.16.840.1.113883",
            "value": "https://fhir-ehr.cerner.com/r4/da0b5d99-573c-4f5e-aaf6-8d39fa93d033/Observation/M-19459292942/_history/1"
          }
        ],
        "category": [
          {
            "coding": [
              {
                "system": "http://terminology.hl7.org/CodeSystem/observation-category",
                "code": "laboratory"
              }
            ]
          }
        ],
        "status": "final",
        "code": {
          "coding": [
            {
              "code": "5769-5",
              "system": "http://loinc.org"
            }
          ]
        },
        "effectiveDateTime": "2022-05-13T07:47:00Z",
        "valueCodeableConcept": {
          "coding": [
            {
              "code": "260413007",
              "display": "None (qualifier value)",
              "system": "http://snomed.info/sct"
            }
          ]
        },
        "interpretation": [
          {
            "coding": [
              {
                "code": "N",
                "display": "Normal",
                "system": "http://terminology.hl7.org/CodeSystem/v3-ObservationInterpretation"
              }
            ]
          }
        ],
        "subject": {
          "reference": "Patient/a7262cf8-3702-4605-9548-cfff3f9cab75"
        }
      },
      "request": {
        "method": "PUT",
        "url": "Observation/a7b1cb64-7121-3dfe-8605-889d1ff3511d"
      }
    },
    {
      "fullUrl": "urn:uuid:19acf2c3-621b-2615-15fa-46d0242a6720",
      "resource": {
        "resourceType": "DiagnosticReport",
        "id": "19acf2c3-621b-2615-15fa-46d0242a6720",
        "identifier": [
          {
            "system": "urn:ietf:rfc:3986",
            "value": "urn:uuid:ae8bad55-ef9a-4a25-8775-f85d55223676"
          }
        ],
        "status": "final",
        "code": {
          "coding": [
            {
              "code": "95419-8",
              "system": "http://loinc.org"
            }
          ]
        },
        "subject": {
          "reference": "Patient/a7262cf8-3702-4605-9548-cfff3f9cab75"
        },
        "result": [
          {
            "reference": "Observation/81503091-497e-5d02-4115-a9b94e3f3c87"
          }
        ],
        "meta": {
          "source": [
            "ecr"
          ]
        }
      },
      "request": {
        "method": "PUT",
        "url": "DiagnosticReport/19acf2c3-621b-2615-15fa-46d0242a6720"
      }
    },
    {
      "fullUrl": "urn:uuid:81503091-497e-5d02-4115-a9b94e3f3c87",
      "resource": {
        "resourceType": "Observation",
        "id": "81503091-497e-5d02-4115-a9b94e3f3c87",
        "meta": {
          "profile": [
            "http://hl7.org/fhir/us/core/StructureDefinition/us-core-observationresults"
          ],
          "source": [
            "ecr"
          ]
        },
        "identifier": [
          {
            "system": "urn:oid:2.16.840.1.113883",
            "value": "https://fhir-ehr.cerner.com/r4/da0b5d99-573c-4f5e-aaf6-8d39fa93d033/Observation/M-19459361290/_history/1"
          }
        ],
        "category": [
          {
            "coding": [
              {
                "system": "http://terminology.hl7.org/CodeSystem/observation-category",
                "code": "laboratory"
              }
            ]
          }
        ],
        "status": "final",
        "code": {
          "coding": [
            {
              "code": "95419-8",
              "system": "http://loinc.org"
            }
          ]
        },
        "effectiveDateTime": "2022-05-13T07:43:00Z",
        "valueCodeableConcept": {
          "coding": [
            {
              "code": "373067005",
              "display": "No (qualifier value)",
              "system": "http://snomed.info/sct"
            }
          ]
        },
        "interpretation": [
          {
            "coding": [
              {
                "code": "N",
                "display": "Normal",
                "system": "http://terminology.hl7.org/CodeSystem/v3-ObservationInterpretation"
              }
            ]
          }
        ],
        "subject": {
          "reference": "Patient/a7262cf8-3702-4605-9548-cfff3f9cab75"
        }
      },
      "request": {
        "method": "PUT",
        "url": "Observation/81503091-497e-5d02-4115-a9b94e3f3c87"
      }
    },
    {
      "fullUrl": "urn:uuid:b14ad53d-d2f5-d7ff-ed96-231f8439f917",
      "resource": {
        "resourceType": "DiagnosticReport",
        "id": "b14ad53d-d2f5-d7ff-ed96-231f8439f917",
        "identifier": [
          {
            "system": "urn:ietf:rfc:3986",
            "value": "urn:uuid:e68c1036-24ed-4cc0-b4f6-7bc05c19a732"
          }
        ],
        "status": "final",
        "code": {
          "coding": [
            {
              "code": "95420-6",
              "system": "http://loinc.org"
            }
          ]
        },
        "subject": {
          "reference": "Patient/a7262cf8-3702-4605-9548-cfff3f9cab75"
        },
        "result": [
          {
            "reference": "Observation/ac4992a1-cbfe-dfcf-5f6b-ca49aa06cddd"
          }
        ],
        "meta": {
          "source": [
            "ecr"
          ]
        }
      },
      "request": {
        "method": "PUT",
        "url": "DiagnosticReport/b14ad53d-d2f5-d7ff-ed96-231f8439f917"
      }
    },
    {
      "fullUrl": "urn:uuid:ac4992a1-cbfe-dfcf-5f6b-ca49aa06cddd",
      "resource": {
        "resourceType": "Observation",
        "id": "ac4992a1-cbfe-dfcf-5f6b-ca49aa06cddd",
        "meta": {
          "profile": [
            "http://hl7.org/fhir/us/core/StructureDefinition/us-core-observationresults"
          ],
          "source": [
            "ecr"
          ]
        },
        "identifier": [
          {
            "system": "urn:oid:2.16.840.1.113883",
            "value": "https://fhir-ehr.cerner.com/r4/da0b5d99-573c-4f5e-aaf6-8d39fa93d033/Observation/M-19459361296/_history/1"
          }
        ],
        "category": [
          {
            "coding": [
              {
                "system": "http://terminology.hl7.org/CodeSystem/observation-category",
                "code": "laboratory"
              }
            ]
          }
        ],
        "status": "final",
        "code": {
          "coding": [
            {
              "code": "95420-6",
              "system": "http://loinc.org"
            }
          ]
        },
        "effectiveDateTime": "2022-05-13T07:43:00Z",
        "valueCodeableConcept": {
          "coding": [
            {
              "code": "373067005",
              "display": "No (qualifier value)",
              "system": "http://snomed.info/sct"
            }
          ]
        },
        "interpretation": [
          {
            "coding": [
              {
                "code": "N",
                "display": "Normal",
                "system": "http://terminology.hl7.org/CodeSystem/v3-ObservationInterpretation"
              }
            ]
          }
        ],
        "subject": {
          "reference": "Patient/a7262cf8-3702-4605-9548-cfff3f9cab75"
        }
      },
      "request": {
        "method": "PUT",
        "url": "Observation/ac4992a1-cbfe-dfcf-5f6b-ca49aa06cddd"
      }
    },
    {
      "fullUrl": "urn:uuid:2778fed1-c918-de35-49e1-822b3eac3257",
      "resource": {
        "resourceType": "DiagnosticReport",
        "id": "2778fed1-c918-de35-49e1-822b3eac3257",
        "identifier": [
          {
            "system": "urn:ietf:rfc:3986",
            "value": "urn:uuid:66f04502-1e75-4931-bf6c-5a9f67f1fe02"
          }
        ],
        "status": "final",
        "code": {
          "coding": [
            {
              "code": "95421-4",
              "system": "http://loinc.org"
            }
          ]
        },
        "subject": {
          "reference": "Patient/a7262cf8-3702-4605-9548-cfff3f9cab75"
        },
        "result": [
          {
            "reference": "Observation/aeeb7e8a-7b73-55f7-148e-4fdfc078285b"
          }
        ],
        "meta": {
          "source": [
            "ecr"
          ]
        }
      },
      "request": {
        "method": "PUT",
        "url": "DiagnosticReport/2778fed1-c918-de35-49e1-822b3eac3257"
      }
    },
    {
      "fullUrl": "urn:uuid:aeeb7e8a-7b73-55f7-148e-4fdfc078285b",
      "resource": {
        "resourceType": "Observation",
        "id": "aeeb7e8a-7b73-55f7-148e-4fdfc078285b",
        "meta": {
          "profile": [
            "http://hl7.org/fhir/us/core/StructureDefinition/us-core-observationresults"
          ],
          "source": [
            "ecr"
          ]
        },
        "identifier": [
          {
            "system": "urn:oid:2.16.840.1.113883",
            "value": "https://fhir-ehr.cerner.com/r4/da0b5d99-573c-4f5e-aaf6-8d39fa93d033/Observation/M-19459361302/_history/1"
          }
        ],
        "category": [
          {
            "coding": [
              {
                "system": "http://terminology.hl7.org/CodeSystem/observation-category",
                "code": "laboratory"
              }
            ]
          }
        ],
        "status": "final",
        "code": {
          "coding": [
            {
              "code": "95421-4",
              "system": "http://loinc.org"
            }
          ]
        },
        "effectiveDateTime": "2022-05-13T07:43:00Z",
        "valueCodeableConcept": {
          "coding": [
            {
              "code": "373067005",
              "display": "No (qualifier value)",
              "system": "http://snomed.info/sct"
            }
          ]
        },
        "interpretation": [
          {
            "coding": [
              {
                "code": "N",
                "display": "Normal",
                "system": "http://terminology.hl7.org/CodeSystem/v3-ObservationInterpretation"
              }
            ]
          }
        ],
        "subject": {
          "reference": "Patient/a7262cf8-3702-4605-9548-cfff3f9cab75"
        }
      },
      "request": {
        "method": "PUT",
        "url": "Observation/aeeb7e8a-7b73-55f7-148e-4fdfc078285b"
      }
    },
    {
      "fullUrl": "urn:uuid:9ded2d62-e1c9-17de-7bfa-a17b7db73e6f",
      "resource": {
        "resourceType": "DiagnosticReport",
        "id": "9ded2d62-e1c9-17de-7bfa-a17b7db73e6f",
        "identifier": [
          {
            "system": "urn:ietf:rfc:3986",
            "value": "urn:uuid:45d8a563-224c-4b9a-8eff-858b538ed6e9"
          }
        ],
        "status": "final",
        "code": {
          "coding": [
            {
              "code": "95417-2",
              "system": "http://loinc.org"
            }
          ]
        },
        "subject": {
          "reference": "Patient/a7262cf8-3702-4605-9548-cfff3f9cab75"
        },
        "result": [
          {
            "reference": "Observation/3d8742ee-44b7-2bc3-1515-d1c4771e6fb2"
          }
        ],
        "meta": {
          "source": [
            "ecr"
          ]
        }
      },
      "request": {
        "method": "PUT",
        "url": "DiagnosticReport/9ded2d62-e1c9-17de-7bfa-a17b7db73e6f"
      }
    },
    {
      "fullUrl": "urn:uuid:3d8742ee-44b7-2bc3-1515-d1c4771e6fb2",
      "resource": {
        "resourceType": "Observation",
        "id": "3d8742ee-44b7-2bc3-1515-d1c4771e6fb2",
        "meta": {
          "profile": [
            "http://hl7.org/fhir/us/core/StructureDefinition/us-core-observationresults"
          ],
          "source": [
            "ecr"
          ]
        },
        "identifier": [
          {
            "system": "urn:oid:2.16.840.1.113883",
            "value": "https://fhir-ehr.cerner.com/r4/da0b5d99-573c-4f5e-aaf6-8d39fa93d033/Observation/M-19459361288/_history/1"
          }
        ],
        "category": [
          {
            "coding": [
              {
                "system": "http://terminology.hl7.org/CodeSystem/observation-category",
                "code": "laboratory"
              }
            ]
          }
        ],
        "status": "final",
        "code": {
          "coding": [
            {
              "code": "95417-2",
              "system": "http://loinc.org"
            }
          ]
        },
        "effectiveDateTime": "2022-05-13T07:43:00Z",
        "valueString": "UNK",
        "subject": {
          "reference": "Patient/a7262cf8-3702-4605-9548-cfff3f9cab75"
        }
      },
      "request": {
        "method": "PUT",
        "url": "Observation/3d8742ee-44b7-2bc3-1515-d1c4771e6fb2"
      }
    },
    {
      "fullUrl": "urn:uuid:87c11304-99f8-f413-ecfd-7bb5e6e73037",
      "resource": {
        "resourceType": "DiagnosticReport",
        "id": "87c11304-99f8-f413-ecfd-7bb5e6e73037",
        "identifier": [
          {
            "system": "urn:ietf:rfc:3986",
            "value": "urn:uuid:aab9084a-aa22-45c0-aa9b-c11d6ad0a104"
          }
        ],
        "status": "final",
        "code": {
          "coding": [
            {
              "code": "95418-0",
              "system": "http://loinc.org"
            }
          ]
        },
        "subject": {
          "reference": "Patient/a7262cf8-3702-4605-9548-cfff3f9cab75"
        },
        "result": [
          {
            "reference": "Observation/c5c046e4-b0eb-3210-114c-7be495e24a3f"
          }
        ],
        "meta": {
          "source": [
            "ecr"
          ]
        }
      },
      "request": {
        "method": "PUT",
        "url": "DiagnosticReport/87c11304-99f8-f413-ecfd-7bb5e6e73037"
      }
    },
    {
      "fullUrl": "urn:uuid:c5c046e4-b0eb-3210-114c-7be495e24a3f",
      "resource": {
        "resourceType": "Observation",
        "id": "c5c046e4-b0eb-3210-114c-7be495e24a3f",
        "meta": {
          "profile": [
            "http://hl7.org/fhir/us/core/StructureDefinition/us-core-observationresults"
          ],
          "source": [
            "ecr"
          ]
        },
        "identifier": [
          {
            "system": "urn:oid:2.16.840.1.113883",
            "value": "https://fhir-ehr.cerner.com/r4/da0b5d99-573c-4f5e-aaf6-8d39fa93d033/Observation/M-19459361300/_history/1"
          }
        ],
        "category": [
          {
            "coding": [
              {
                "system": "http://terminology.hl7.org/CodeSystem/observation-category",
                "code": "laboratory"
              }
            ]
          }
        ],
        "status": "final",
        "code": {
          "coding": [
            {
              "code": "95418-0",
              "system": "http://loinc.org"
            }
          ]
        },
        "effectiveDateTime": "2022-05-13T07:43:00Z",
        "valueCodeableConcept": {
          "coding": [
            {
              "code": "373067005",
              "display": "No (qualifier value)",
              "system": "http://snomed.info/sct"
            }
          ]
        },
        "interpretation": [
          {
            "coding": [
              {
                "code": "N",
                "display": "Normal",
                "system": "http://terminology.hl7.org/CodeSystem/v3-ObservationInterpretation"
              }
            ]
          }
        ],
        "subject": {
          "reference": "Patient/a7262cf8-3702-4605-9548-cfff3f9cab75"
        }
      },
      "request": {
        "method": "PUT",
        "url": "Observation/c5c046e4-b0eb-3210-114c-7be495e24a3f"
      }
    },
    {
      "fullUrl": "urn:uuid:394d5626-06b2-3a16-ab77-33764ed9fc6e",
      "resource": {
        "resourceType": "DiagnosticReport",
        "id": "394d5626-06b2-3a16-ab77-33764ed9fc6e",
        "identifier": [
          {
            "system": "urn:ietf:rfc:3986",
            "value": "urn:uuid:6c28395e-46a7-4298-bb48-0ea86172036c"
          }
        ],
        "status": "final",
        "code": {
          "coding": [
            {
              "code": "65222-2",
              "system": "http://loinc.org"
            }
          ]
        },
        "subject": {
          "reference": "Patient/a7262cf8-3702-4605-9548-cfff3f9cab75"
        },
        "result": [
          {
            "reference": "Observation/546deab4-bca2-d056-24e3-d5bcde20d975"
          }
        ],
        "meta": {
          "source": [
            "ecr"
          ]
        }
      },
      "request": {
        "method": "PUT",
        "url": "DiagnosticReport/394d5626-06b2-3a16-ab77-33764ed9fc6e"
      }
    },
    {
      "fullUrl": "urn:uuid:546deab4-bca2-d056-24e3-d5bcde20d975",
      "resource": {
        "resourceType": "Observation",
        "id": "546deab4-bca2-d056-24e3-d5bcde20d975",
        "meta": {
          "profile": [
            "http://hl7.org/fhir/us/core/StructureDefinition/us-core-observationresults"
          ],
          "source": [
            "ecr"
          ]
        },
        "identifier": [
          {
            "system": "urn:oid:2.16.840.1.113883",
            "value": "https://fhir-ehr.cerner.com/r4/da0b5d99-573c-4f5e-aaf6-8d39fa93d033/Observation/M-19459361292/_history/1"
          }
        ],
        "category": [
          {
            "coding": [
              {
                "system": "http://terminology.hl7.org/CodeSystem/observation-category",
                "code": "laboratory"
              }
            ]
          }
        ],
        "status": "final",
        "code": {
          "coding": [
            {
              "code": "65222-2",
              "system": "http://loinc.org"
            }
          ]
        },
        "effectiveDateTime": "2022-05-13T07:43:00Z",
        "valueString": "UNK",
        "subject": {
          "reference": "Patient/a7262cf8-3702-4605-9548-cfff3f9cab75"
        }
      },
      "request": {
        "method": "PUT",
        "url": "Observation/546deab4-bca2-d056-24e3-d5bcde20d975"
      }
    },
    {
      "fullUrl": "urn:uuid:c53adedd-3f8b-cf55-1d8b-2c2b6b6a00ae",
      "resource": {
        "resourceType": "DiagnosticReport",
        "id": "c53adedd-3f8b-cf55-1d8b-2c2b6b6a00ae",
        "identifier": [
          {
            "system": "urn:ietf:rfc:3986",
            "value": "urn:uuid:8625444b-ea02-4d22-9288-9e6df95d0bb7"
          }
        ],
        "status": "final",
        "code": {
          "coding": [
            {
              "code": "94309-2",
              "system": "http://loinc.org"
            }
          ]
        },
        "subject": {
          "reference": "Patient/a7262cf8-3702-4605-9548-cfff3f9cab75"
        },
        "result": [
          {
            "reference": "Observation/2e39b82b-8663-164f-11a6-31fdbba093b7"
          }
        ],
        "meta": {
          "source": [
            "ecr"
          ]
        }
      },
      "request": {
        "method": "PUT",
        "url": "DiagnosticReport/c53adedd-3f8b-cf55-1d8b-2c2b6b6a00ae"
      }
    },
    {
      "fullUrl": "urn:uuid:2e39b82b-8663-164f-11a6-31fdbba093b7",
      "resource": {
        "resourceType": "Observation",
        "id": "2e39b82b-8663-164f-11a6-31fdbba093b7",
        "meta": {
          "profile": [
            "http://hl7.org/fhir/us/core/StructureDefinition/us-core-observationresults"
          ],
          "source": [
            "ecr"
          ]
        },
        "identifier": [
          {
            "system": "urn:oid:2.16.840.1.113883",
            "value": "https://fhir-ehr.cerner.com/r4/da0b5d99-573c-4f5e-aaf6-8d39fa93d033/Observation/M-19459361306/_history/1"
          }
        ],
        "category": [
          {
            "coding": [
              {
                "system": "http://terminology.hl7.org/CodeSystem/observation-category",
                "code": "laboratory"
              }
            ]
          }
        ],
        "status": "final",
        "code": {
          "coding": [
            {
              "code": "94309-2",
              "display": "SARS-CoV-2 Interp:",
              "system": "http://loinc.org"
            }
          ]
        },
        "effectiveDateTime": "2022-05-13T07:43:00Z",
        "subject": {
          "reference": "Patient/a7262cf8-3702-4605-9548-cfff3f9cab75"
        }
      },
      "request": {
        "method": "PUT",
        "url": "Observation/2e39b82b-8663-164f-11a6-31fdbba093b7"
      }
    },
    {
      "fullUrl": "urn:uuid:214efd8c-7cc1-b5a9-23d9-938bf05d71aa",
      "resource": {
        "resourceType": "DiagnosticReport",
        "id": "214efd8c-7cc1-b5a9-23d9-938bf05d71aa",
        "identifier": [
          {
            "system": "urn:ietf:rfc:3986",
            "value": "urn:uuid:4ba676a9-1271-4563-a285-f86948a57376"
          }
        ],
        "status": "final",
        "code": {
          "coding": [
            {
              "code": "94500-6",
              "system": "http://loinc.org"
            }
          ]
        },
        "subject": {
          "reference": "Patient/a7262cf8-3702-4605-9548-cfff3f9cab75"
        },
        "result": [
          {
            "reference": "Observation/ed81d103-56dc-f9b9-ccc6-315503cb75b8"
          }
        ],
        "meta": {
          "source": [
            "ecr"
          ]
        }
      },
      "request": {
        "method": "PUT",
        "url": "DiagnosticReport/214efd8c-7cc1-b5a9-23d9-938bf05d71aa"
      }
    },
    {
      "fullUrl": "urn:uuid:ed81d103-56dc-f9b9-ccc6-315503cb75b8",
      "resource": {
        "resourceType": "Observation",
        "id": "ed81d103-56dc-f9b9-ccc6-315503cb75b8",
        "meta": {
          "profile": [
            "http://hl7.org/fhir/us/core/StructureDefinition/us-core-observationresults"
          ],
          "source": [
            "ecr"
          ]
        },
        "identifier": [
          {
            "system": "urn:oid:2.16.840.1.113883",
            "value": "https://fhir-ehr.cerner.com/r4/da0b5d99-573c-4f5e-aaf6-8d39fa93d033/Observation/M-19459361304/_history/1"
          }
        ],
        "category": [
          {
            "coding": [
              {
                "system": "http://terminology.hl7.org/CodeSystem/observation-category",
                "code": "laboratory"
              }
            ]
          }
        ],
        "status": "final",
        "code": {
          "coding": [
            {
              "code": "94500-6",
              "display": "SARS-CoV-2 PCR",
              "system": "http://loinc.org"
            }
          ]
        },
        "effectiveDateTime": "2022-05-13T07:43:00Z",
        "valueCodeableConcept": {
          "coding": [
            {
              "code": "260385009",
              "display": "Negative (qualifier value)",
              "system": "http://snomed.info/sct"
            }
          ]
        },
        "interpretation": [
          {
            "coding": [
              {
                "code": "N",
                "display": "Normal",
                "system": "http://terminology.hl7.org/CodeSystem/v3-ObservationInterpretation"
              }
            ]
          }
        ],
        "subject": {
          "reference": "Patient/a7262cf8-3702-4605-9548-cfff3f9cab75"
        }
      },
      "request": {
        "method": "PUT",
        "url": "Observation/ed81d103-56dc-f9b9-ccc6-315503cb75b8"
      }
    },
    {
      "fullUrl": "urn:uuid:4d8397b2-f3da-0109-6e5b-a3ecc1261dc0",
      "resource": {
        "resourceType": "DiagnosticReport",
        "id": "4d8397b2-f3da-0109-6e5b-a3ecc1261dc0",
        "identifier": [
          {
            "system": "urn:ietf:rfc:3986",
            "value": "urn:uuid:26f9100d-515f-472c-bffb-93806fd9bd71"
          }
        ],
        "status": "final",
        "code": {
          "coding": [
            {
              "code": "76080-1",
              "system": "http://loinc.org"
            }
          ]
        },
        "subject": {
          "reference": "Patient/a7262cf8-3702-4605-9548-cfff3f9cab75"
        },
        "result": [
          {
            "reference": "Observation/b055bbba-9778-0f5d-1ed4-0415c127aeec"
          }
        ],
        "meta": {
          "source": [
            "ecr"
          ]
        }
      },
      "request": {
        "method": "PUT",
        "url": "DiagnosticReport/4d8397b2-f3da-0109-6e5b-a3ecc1261dc0"
      }
    },
    {
      "fullUrl": "urn:uuid:b055bbba-9778-0f5d-1ed4-0415c127aeec",
      "resource": {
        "resourceType": "Observation",
        "id": "b055bbba-9778-0f5d-1ed4-0415c127aeec",
        "meta": {
          "profile": [
            "http://hl7.org/fhir/us/core/StructureDefinition/us-core-observationresults"
          ],
          "source": [
            "ecr"
          ]
        },
        "identifier": [
          {
            "system": "urn:oid:2.16.840.1.113883",
            "value": "https://fhir-ehr.cerner.com/r4/da0b5d99-573c-4f5e-aaf6-8d39fa93d033/Observation/M-19459361280/_history/1"
          }
        ],
        "category": [
          {
            "coding": [
              {
                "system": "http://terminology.hl7.org/CodeSystem/observation-category",
                "code": "laboratory"
              }
            ]
          }
        ],
        "status": "final",
        "code": {
          "coding": [
            {
              "code": "76080-1",
              "system": "http://loinc.org"
            }
          ]
        },
        "effectiveDateTime": "2022-05-13T07:43:00Z",
        "valueCodeableConcept": {
          "coding": [
            {
              "code": "260415000",
              "display": "Not detected (qualifier value)",
              "system": "http://snomed.info/sct"
            }
          ]
        },
        "interpretation": [
          {
            "coding": [
              {
                "code": "N",
                "display": "Normal",
                "system": "http://terminology.hl7.org/CodeSystem/v3-ObservationInterpretation"
              }
            ]
          }
        ],
        "subject": {
          "reference": "Patient/a7262cf8-3702-4605-9548-cfff3f9cab75"
        }
      },
      "request": {
        "method": "PUT",
        "url": "Observation/b055bbba-9778-0f5d-1ed4-0415c127aeec"
      }
    },
    {
      "fullUrl": "urn:uuid:be6bf447-8458-cbbd-f521-32ae4585f607",
      "resource": {
        "resourceType": "DiagnosticReport",
        "id": "be6bf447-8458-cbbd-f521-32ae4585f607",
        "identifier": [
          {
            "system": "urn:ietf:rfc:3986",
            "value": "urn:uuid:10ea9500-d59d-4962-8a8d-81c0749f06f6"
          }
        ],
        "status": "final",
        "code": {
          "coding": [
            {
              "code": "76078-5",
              "system": "http://loinc.org"
            }
          ]
        },
        "subject": {
          "reference": "Patient/a7262cf8-3702-4605-9548-cfff3f9cab75"
        },
        "result": [
          {
            "reference": "Observation/9f30a6e1-c3d8-bef3-df89-b7c64b9bada4"
          }
        ],
        "meta": {
          "source": [
            "ecr"
          ]
        }
      },
      "request": {
        "method": "PUT",
        "url": "DiagnosticReport/be6bf447-8458-cbbd-f521-32ae4585f607"
      }
    },
    {
      "fullUrl": "urn:uuid:9f30a6e1-c3d8-bef3-df89-b7c64b9bada4",
      "resource": {
        "resourceType": "Observation",
        "id": "9f30a6e1-c3d8-bef3-df89-b7c64b9bada4",
        "meta": {
          "profile": [
            "http://hl7.org/fhir/us/core/StructureDefinition/us-core-observationresults"
          ],
          "source": [
            "ecr"
          ]
        },
        "identifier": [
          {
            "system": "urn:oid:2.16.840.1.113883",
            "value": "https://fhir-ehr.cerner.com/r4/da0b5d99-573c-4f5e-aaf6-8d39fa93d033/Observation/M-19459361278/_history/1"
          }
        ],
        "category": [
          {
            "coding": [
              {
                "system": "http://terminology.hl7.org/CodeSystem/observation-category",
                "code": "laboratory"
              }
            ]
          }
        ],
        "status": "final",
        "code": {
          "coding": [
            {
              "code": "76078-5",
              "system": "http://loinc.org"
            }
          ]
        },
        "effectiveDateTime": "2022-05-13T07:43:00Z",
        "valueCodeableConcept": {
          "coding": [
            {
              "code": "260415000",
              "display": "Not detected (qualifier value)",
              "system": "http://snomed.info/sct"
            }
          ]
        },
        "interpretation": [
          {
            "coding": [
              {
                "code": "N",
                "display": "Normal",
                "system": "http://terminology.hl7.org/CodeSystem/v3-ObservationInterpretation"
              }
            ]
          }
        ],
        "subject": {
          "reference": "Patient/a7262cf8-3702-4605-9548-cfff3f9cab75"
        }
      },
      "request": {
        "method": "PUT",
        "url": "Observation/9f30a6e1-c3d8-bef3-df89-b7c64b9bada4"
      }
    },
    {
      "fullUrl": "urn:uuid:932fc1a5-f543-da9f-0c33-f3e9a2f87274",
      "resource": {
        "resourceType": "DiagnosticReport",
        "id": "932fc1a5-f543-da9f-0c33-f3e9a2f87274",
        "identifier": [
          {
            "system": "urn:ietf:rfc:3986",
            "value": "urn:uuid:a97480ed-8ed9-46d4-9c8b-f0203447b347"
          }
        ],
        "status": "final",
        "code": {
          "coding": [
            {
              "code": "5803-2",
              "system": "http://loinc.org"
            }
          ]
        },
        "subject": {
          "reference": "Patient/a7262cf8-3702-4605-9548-cfff3f9cab75"
        },
        "result": [
          {
            "reference": "Observation/8347a4a4-68d7-c939-a39a-1c83ade11da9"
          }
        ],
        "meta": {
          "source": [
            "ecr"
          ]
        }
      },
      "request": {
        "method": "PUT",
        "url": "DiagnosticReport/932fc1a5-f543-da9f-0c33-f3e9a2f87274"
      }
    },
    {
      "fullUrl": "urn:uuid:8347a4a4-68d7-c939-a39a-1c83ade11da9",
      "resource": {
        "resourceType": "Observation",
        "id": "8347a4a4-68d7-c939-a39a-1c83ade11da9",
        "meta": {
          "profile": [
            "http://hl7.org/fhir/us/core/StructureDefinition/us-core-observationresults"
          ],
          "source": [
            "ecr"
          ]
        },
        "identifier": [
          {
            "system": "urn:oid:2.16.840.1.113883",
            "value": "https://fhir-ehr.cerner.com/r4/da0b5d99-573c-4f5e-aaf6-8d39fa93d033/Observation/M-19459157887/_history/1"
          }
        ],
        "category": [
          {
            "coding": [
              {
                "system": "http://terminology.hl7.org/CodeSystem/observation-category",
                "code": "laboratory"
              }
            ]
          }
        ],
        "status": "final",
        "code": {
          "coding": [
            {
              "code": "5803-2",
              "system": "http://loinc.org"
            }
          ]
        },
        "effectiveDateTime": "2022-05-13T06:52:00Z",
        "valueCodeableConcept": {
          "coding": [
            {
              "code": "68244004",
              "display": "Six (qualifier value)",
              "system": "http://snomed.info/sct"
            }
          ]
        },
        "subject": {
          "reference": "Patient/a7262cf8-3702-4605-9548-cfff3f9cab75"
        }
      },
      "request": {
        "method": "PUT",
        "url": "Observation/8347a4a4-68d7-c939-a39a-1c83ade11da9"
      }
    },
    {
      "fullUrl": "urn:uuid:15c3111a-f473-9c40-6d5c-d1862e5315c6",
      "resource": {
        "resourceType": "DiagnosticReport",
        "id": "15c3111a-f473-9c40-6d5c-d1862e5315c6",
        "identifier": [
          {
            "system": "urn:ietf:rfc:3986",
            "value": "urn:uuid:c4602a4c-fc77-42a2-97ac-076e3fc307a3"
          }
        ],
        "status": "final",
        "code": {
          "coding": [
            {
              "code": "2965-2",
              "system": "http://loinc.org"
            }
          ]
        },
        "subject": {
          "reference": "Patient/a7262cf8-3702-4605-9548-cfff3f9cab75"
        },
        "result": [
          {
            "reference": "Observation/247c7366-60be-2ba4-1667-dc4a2cffdcdf"
          }
        ],
        "meta": {
          "source": [
            "ecr"
          ]
        }
      },
      "request": {
        "method": "PUT",
        "url": "DiagnosticReport/15c3111a-f473-9c40-6d5c-d1862e5315c6"
      }
    },
    {
      "fullUrl": "urn:uuid:247c7366-60be-2ba4-1667-dc4a2cffdcdf",
      "resource": {
        "resourceType": "Observation",
        "id": "247c7366-60be-2ba4-1667-dc4a2cffdcdf",
        "meta": {
          "profile": [
            "http://hl7.org/fhir/us/core/StructureDefinition/us-core-observationresults"
          ],
          "source": [
            "ecr"
          ]
        },
        "identifier": [
          {
            "system": "urn:oid:2.16.840.1.113883",
            "value": "https://fhir-ehr.cerner.com/r4/da0b5d99-573c-4f5e-aaf6-8d39fa93d033/Observation/M-19459157885/_history/1"
          }
        ],
        "category": [
          {
            "coding": [
              {
                "system": "http://terminology.hl7.org/CodeSystem/observation-category",
                "code": "laboratory"
              }
            ]
          }
        ],
        "status": "final",
        "code": {
          "coding": [
            {
              "code": "2965-2",
              "system": "http://loinc.org"
            }
          ]
        },
        "effectiveDateTime": "2022-05-13T06:52:00Z",
        "subject": {
          "reference": "Patient/a7262cf8-3702-4605-9548-cfff3f9cab75"
        }
      },
      "request": {
        "method": "PUT",
        "url": "Observation/247c7366-60be-2ba4-1667-dc4a2cffdcdf"
      }
    },
    {
      "fullUrl": "urn:uuid:08fe9462-943c-4271-680d-3010fabab539",
      "resource": {
        "resourceType": "DiagnosticReport",
        "id": "08fe9462-943c-4271-680d-3010fabab539",
        "identifier": [
          {
            "system": "urn:ietf:rfc:3986",
            "value": "urn:uuid:068fbc96-82f4-4ceb-9918-2b2cf1365631"
          }
        ],
        "status": "final",
        "code": {
          "coding": [
            {
              "code": "19161-9",
              "system": "http://loinc.org"
            }
          ]
        },
        "subject": {
          "reference": "Patient/a7262cf8-3702-4605-9548-cfff3f9cab75"
        },
        "result": [
          {
            "reference": "Observation/5d87c713-c202-2486-c0c2-5d6d691af42f"
          }
        ],
        "meta": {
          "source": [
            "ecr"
          ]
        }
      },
      "request": {
        "method": "PUT",
        "url": "DiagnosticReport/08fe9462-943c-4271-680d-3010fabab539"
      }
    },
    {
      "fullUrl": "urn:uuid:5d87c713-c202-2486-c0c2-5d6d691af42f",
      "resource": {
        "resourceType": "Observation",
        "id": "5d87c713-c202-2486-c0c2-5d6d691af42f",
        "meta": {
          "profile": [
            "http://hl7.org/fhir/us/core/StructureDefinition/us-core-observationresults"
          ],
          "source": [
            "ecr"
          ]
        },
        "identifier": [
          {
            "system": "urn:oid:2.16.840.1.113883",
            "value": "https://fhir-ehr.cerner.com/r4/da0b5d99-573c-4f5e-aaf6-8d39fa93d033/Observation/M-19459157895/_history/1"
          }
        ],
        "category": [
          {
            "coding": [
              {
                "system": "http://terminology.hl7.org/CodeSystem/observation-category",
                "code": "laboratory"
              }
            ]
          }
        ],
        "status": "final",
        "code": {
          "coding": [
            {
              "code": "19161-9",
              "system": "http://loinc.org"
            }
          ]
        },
        "effectiveDateTime": "2022-05-13T06:52:00Z",
        "valueCodeableConcept": {
          "coding": [
            {
              "code": "732349004",
              "display": "0.2",
              "system": "http://snomed.info/sct"
            }
          ]
        },
        "interpretation": [
          {
            "coding": [
              {
                "code": "N",
                "display": "Normal",
                "system": "http://terminology.hl7.org/CodeSystem/v3-ObservationInterpretation"
              }
            ]
          }
        ],
        "subject": {
          "reference": "Patient/a7262cf8-3702-4605-9548-cfff3f9cab75"
        }
      },
      "request": {
        "method": "PUT",
        "url": "Observation/5d87c713-c202-2486-c0c2-5d6d691af42f"
      }
    },
    {
      "fullUrl": "urn:uuid:3ab6636a-73c4-e6be-5f1d-f35b83f4c90d",
      "resource": {
        "resourceType": "DiagnosticReport",
        "id": "3ab6636a-73c4-e6be-5f1d-f35b83f4c90d",
        "identifier": [
          {
            "system": "urn:ietf:rfc:3986",
            "value": "urn:uuid:560ada7e-520d-4c1f-883d-2409edb39161"
          }
        ],
        "status": "final",
        "code": {
          "coding": [
            {
              "code": "725-2",
              "system": "http://loinc.org"
            }
          ]
        },
        "subject": {
          "reference": "Patient/a7262cf8-3702-4605-9548-cfff3f9cab75"
        },
        "result": [
          {
            "reference": "Observation/a1993689-9c3a-6986-9d21-e7515972f8c2"
          }
        ],
        "meta": {
          "source": [
            "ecr"
          ]
        }
      },
      "request": {
        "method": "PUT",
        "url": "DiagnosticReport/3ab6636a-73c4-e6be-5f1d-f35b83f4c90d"
      }
    },
    {
      "fullUrl": "urn:uuid:a1993689-9c3a-6986-9d21-e7515972f8c2",
      "resource": {
        "resourceType": "Observation",
        "id": "a1993689-9c3a-6986-9d21-e7515972f8c2",
        "meta": {
          "profile": [
            "http://hl7.org/fhir/us/core/StructureDefinition/us-core-observationresults"
          ],
          "source": [
            "ecr"
          ]
        },
        "identifier": [
          {
            "system": "urn:oid:2.16.840.1.113883",
            "value": "https://fhir-ehr.cerner.com/r4/da0b5d99-573c-4f5e-aaf6-8d39fa93d033/Observation/M-19459157893/_history/1"
          }
        ],
        "category": [
          {
            "coding": [
              {
                "system": "http://terminology.hl7.org/CodeSystem/observation-category",
                "code": "laboratory"
              }
            ]
          }
        ],
        "status": "final",
        "code": {
          "coding": [
            {
              "code": "725-2",
              "system": "http://loinc.org"
            }
          ]
        },
        "effectiveDateTime": "2022-05-13T06:52:00Z",
        "valueString": "Trace-lysed",
        "subject": {
          "reference": "Patient/a7262cf8-3702-4605-9548-cfff3f9cab75"
        }
      },
      "request": {
        "method": "PUT",
        "url": "Observation/a1993689-9c3a-6986-9d21-e7515972f8c2"
      }
    },
    {
      "fullUrl": "urn:uuid:8d531a14-eaa1-4503-b5e6-5a70be3908dc",
      "resource": {
        "resourceType": "DiagnosticReport",
        "id": "8d531a14-eaa1-4503-b5e6-5a70be3908dc",
        "identifier": [
          {
            "system": "urn:ietf:rfc:3986",
            "value": "urn:uuid:1061fa97-53cb-47ee-b375-d560e7ab2773"
          }
        ],
        "status": "final",
        "code": {
          "coding": [
            {
              "code": "1977-8",
              "system": "http://loinc.org"
            }
          ]
        },
        "subject": {
          "reference": "Patient/a7262cf8-3702-4605-9548-cfff3f9cab75"
        },
        "result": [
          {
            "reference": "Observation/0909ed94-9369-57cb-60a3-353c08947a8a"
          }
        ],
        "meta": {
          "source": [
            "ecr"
          ]
        }
      },
      "request": {
        "method": "PUT",
        "url": "DiagnosticReport/8d531a14-eaa1-4503-b5e6-5a70be3908dc"
      }
    },
    {
      "fullUrl": "urn:uuid:0909ed94-9369-57cb-60a3-353c08947a8a",
      "resource": {
        "resourceType": "Observation",
        "id": "0909ed94-9369-57cb-60a3-353c08947a8a",
        "meta": {
          "profile": [
            "http://hl7.org/fhir/us/core/StructureDefinition/us-core-observationresults"
          ],
          "source": [
            "ecr"
          ]
        },
        "identifier": [
          {
            "system": "urn:oid:2.16.840.1.113883",
            "value": "https://fhir-ehr.cerner.com/r4/da0b5d99-573c-4f5e-aaf6-8d39fa93d033/Observation/M-19459157891/_history/1"
          }
        ],
        "category": [
          {
            "coding": [
              {
                "system": "http://terminology.hl7.org/CodeSystem/observation-category",
                "code": "laboratory"
              }
            ]
          }
        ],
        "status": "final",
        "code": {
          "coding": [
            {
              "code": "1977-8",
              "system": "http://loinc.org"
            }
          ]
        },
        "effectiveDateTime": "2022-05-13T06:52:00Z",
        "interpretation": [
          {
            "coding": [
              {
                "code": "N",
                "display": "Normal",
                "system": "http://terminology.hl7.org/CodeSystem/v3-ObservationInterpretation"
              }
            ]
          }
        ],
        "subject": {
          "reference": "Patient/a7262cf8-3702-4605-9548-cfff3f9cab75"
        }
      },
      "request": {
        "method": "PUT",
        "url": "Observation/0909ed94-9369-57cb-60a3-353c08947a8a"
      }
    },
    {
      "fullUrl": "urn:uuid:6e4e508c-1381-215d-8fa3-3958fcf1573a",
      "resource": {
        "resourceType": "DiagnosticReport",
        "id": "6e4e508c-1381-215d-8fa3-3958fcf1573a",
        "identifier": [
          {
            "system": "urn:ietf:rfc:3986",
            "value": "urn:uuid:950ddc5f-f6c2-4586-b010-b59d9c0a745e"
          }
        ],
        "status": "final",
        "code": {
          "coding": [
            {
              "code": "5799-2",
              "system": "http://loinc.org"
            }
          ]
        },
        "subject": {
          "reference": "Patient/a7262cf8-3702-4605-9548-cfff3f9cab75"
        },
        "result": [
          {
            "reference": "Observation/304a0b98-17f1-b855-6f0f-bb507f3045ad"
          }
        ],
        "meta": {
          "source": [
            "ecr"
          ]
        }
      },
      "request": {
        "method": "PUT",
        "url": "DiagnosticReport/6e4e508c-1381-215d-8fa3-3958fcf1573a"
      }
    },
    {
      "fullUrl": "urn:uuid:304a0b98-17f1-b855-6f0f-bb507f3045ad",
      "resource": {
        "resourceType": "Observation",
        "id": "304a0b98-17f1-b855-6f0f-bb507f3045ad",
        "meta": {
          "profile": [
            "http://hl7.org/fhir/us/core/StructureDefinition/us-core-observationresults"
          ],
          "source": [
            "ecr"
          ]
        },
        "identifier": [
          {
            "system": "urn:oid:2.16.840.1.113883",
            "value": "https://fhir-ehr.cerner.com/r4/da0b5d99-573c-4f5e-aaf6-8d39fa93d033/Observation/M-19459157889/_history/1"
          }
        ],
        "category": [
          {
            "coding": [
              {
                "system": "http://terminology.hl7.org/CodeSystem/observation-category",
                "code": "laboratory"
              }
            ]
          }
        ],
        "status": "final",
        "code": {
          "coding": [
            {
              "code": "5799-2",
              "system": "http://loinc.org"
            }
          ]
        },
        "effectiveDateTime": "2022-05-13T06:52:00Z",
        "interpretation": [
          {
            "coding": [
              {
                "code": "N",
                "display": "Normal",
                "system": "http://terminology.hl7.org/CodeSystem/v3-ObservationInterpretation"
              }
            ]
          }
        ],
        "subject": {
          "reference": "Patient/a7262cf8-3702-4605-9548-cfff3f9cab75"
        }
      },
      "request": {
        "method": "PUT",
        "url": "Observation/304a0b98-17f1-b855-6f0f-bb507f3045ad"
      }
    },
    {
      "fullUrl": "urn:uuid:48b8b9fb-2867-9b86-684a-d7ce3e02e37f",
      "resource": {
        "resourceType": "DiagnosticReport",
        "id": "48b8b9fb-2867-9b86-684a-d7ce3e02e37f",
        "identifier": [
          {
            "system": "urn:ietf:rfc:3986",
            "value": "urn:uuid:40dbb39d-636f-4201-b84c-54cb7a985863"
          }
        ],
        "status": "final",
        "code": {
          "coding": [
            {
              "code": "5804-0",
              "system": "http://loinc.org"
            }
          ]
        },
        "subject": {
          "reference": "Patient/a7262cf8-3702-4605-9548-cfff3f9cab75"
        },
        "result": [
          {
            "reference": "Observation/b7f26954-ec35-0dbd-da80-48b380621693"
          }
        ],
        "meta": {
          "source": [
            "ecr"
          ]
        }
      },
      "request": {
        "method": "PUT",
        "url": "DiagnosticReport/48b8b9fb-2867-9b86-684a-d7ce3e02e37f"
      }
    },
    {
      "fullUrl": "urn:uuid:b7f26954-ec35-0dbd-da80-48b380621693",
      "resource": {
        "resourceType": "Observation",
        "id": "b7f26954-ec35-0dbd-da80-48b380621693",
        "meta": {
          "profile": [
            "http://hl7.org/fhir/us/core/StructureDefinition/us-core-observationresults"
          ],
          "source": [
            "ecr"
          ]
        },
        "identifier": [
          {
            "system": "urn:oid:2.16.840.1.113883",
            "value": "https://fhir-ehr.cerner.com/r4/da0b5d99-573c-4f5e-aaf6-8d39fa93d033/Observation/M-19459157883/_history/1"
          }
        ],
        "category": [
          {
            "coding": [
              {
                "system": "http://terminology.hl7.org/CodeSystem/observation-category",
                "code": "laboratory"
              }
            ]
          }
        ],
        "status": "final",
        "code": {
          "coding": [
            {
              "code": "5804-0",
              "system": "http://loinc.org"
            }
          ]
        },
        "effectiveDateTime": "2022-05-13T06:52:00Z",
        "interpretation": [
          {
            "coding": [
              {
                "code": "N",
                "display": "Normal",
                "system": "http://terminology.hl7.org/CodeSystem/v3-ObservationInterpretation"
              }
            ]
          }
        ],
        "subject": {
          "reference": "Patient/a7262cf8-3702-4605-9548-cfff3f9cab75"
        }
      },
      "request": {
        "method": "PUT",
        "url": "Observation/b7f26954-ec35-0dbd-da80-48b380621693"
      }
    },
    {
      "fullUrl": "urn:uuid:d7f0d92a-69b0-f09c-ba69-16cc4448ae7f",
      "resource": {
        "resourceType": "DiagnosticReport",
        "id": "d7f0d92a-69b0-f09c-ba69-16cc4448ae7f",
        "identifier": [
          {
            "system": "urn:ietf:rfc:3986",
            "value": "urn:uuid:53bef43a-a55b-4776-ae62-4ca14121af87"
          }
        ],
        "status": "final",
        "code": {
          "coding": [
            {
              "code": "5802-4",
              "system": "http://loinc.org"
            }
          ]
        },
        "subject": {
          "reference": "Patient/a7262cf8-3702-4605-9548-cfff3f9cab75"
        },
        "result": [
          {
            "reference": "Observation/83a07fb4-b3c1-118a-ac11-a3232785ac3b"
          }
        ],
        "meta": {
          "source": [
            "ecr"
          ]
        }
      },
      "request": {
        "method": "PUT",
        "url": "DiagnosticReport/d7f0d92a-69b0-f09c-ba69-16cc4448ae7f"
      }
    },
    {
      "fullUrl": "urn:uuid:83a07fb4-b3c1-118a-ac11-a3232785ac3b",
      "resource": {
        "resourceType": "Observation",
        "id": "83a07fb4-b3c1-118a-ac11-a3232785ac3b",
        "meta": {
          "profile": [
            "http://hl7.org/fhir/us/core/StructureDefinition/us-core-observationresults"
          ],
          "source": [
            "ecr"
          ]
        },
        "identifier": [
          {
            "system": "urn:oid:2.16.840.1.113883",
            "value": "https://fhir-ehr.cerner.com/r4/da0b5d99-573c-4f5e-aaf6-8d39fa93d033/Observation/M-19459157881/_history/1"
          }
        ],
        "category": [
          {
            "coding": [
              {
                "system": "http://terminology.hl7.org/CodeSystem/observation-category",
                "code": "laboratory"
              }
            ]
          }
        ],
        "status": "final",
        "code": {
          "coding": [
            {
              "code": "5802-4",
              "system": "http://loinc.org"
            }
          ]
        },
        "effectiveDateTime": "2022-05-13T06:52:00Z",
        "interpretation": [
          {
            "coding": [
              {
                "code": "N",
                "display": "Normal",
                "system": "http://terminology.hl7.org/CodeSystem/v3-ObservationInterpretation"
              }
            ]
          }
        ],
        "subject": {
          "reference": "Patient/a7262cf8-3702-4605-9548-cfff3f9cab75"
        }
      },
      "request": {
        "method": "PUT",
        "url": "Observation/83a07fb4-b3c1-118a-ac11-a3232785ac3b"
      }
    },
    {
      "fullUrl": "urn:uuid:f1585cb1-ec32-8e5d-572a-95941db69548",
      "resource": {
        "resourceType": "DiagnosticReport",
        "id": "f1585cb1-ec32-8e5d-572a-95941db69548",
        "identifier": [
          {
            "system": "urn:ietf:rfc:3986",
            "value": "urn:uuid:1de1b0c3-fb17-4d68-8904-8211e38b9e84"
          }
        ],
        "status": "final",
        "code": {
          "coding": [
            {
              "code": "33903-6",
              "system": "http://loinc.org"
            }
          ]
        },
        "subject": {
          "reference": "Patient/a7262cf8-3702-4605-9548-cfff3f9cab75"
        },
        "result": [
          {
            "reference": "Observation/f73f0c43-7283-9ace-b129-68555b0eef89"
          }
        ],
        "meta": {
          "source": [
            "ecr"
          ]
        }
      },
      "request": {
        "method": "PUT",
        "url": "DiagnosticReport/f1585cb1-ec32-8e5d-572a-95941db69548"
      }
    },
    {
      "fullUrl": "urn:uuid:f73f0c43-7283-9ace-b129-68555b0eef89",
      "resource": {
        "resourceType": "Observation",
        "id": "f73f0c43-7283-9ace-b129-68555b0eef89",
        "meta": {
          "profile": [
            "http://hl7.org/fhir/us/core/StructureDefinition/us-core-observationresults"
          ],
          "source": [
            "ecr"
          ]
        },
        "identifier": [
          {
            "system": "urn:oid:2.16.840.1.113883",
            "value": "https://fhir-ehr.cerner.com/r4/da0b5d99-573c-4f5e-aaf6-8d39fa93d033/Observation/M-19459157879/_history/1"
          }
        ],
        "category": [
          {
            "coding": [
              {
                "system": "http://terminology.hl7.org/CodeSystem/observation-category",
                "code": "laboratory"
              }
            ]
          }
        ],
        "status": "final",
        "code": {
          "coding": [
            {
              "code": "33903-6",
              "system": "http://loinc.org"
            }
          ]
        },
        "effectiveDateTime": "2022-05-13T06:52:00Z",
        "interpretation": [
          {
            "coding": [
              {
                "code": "N",
                "display": "Normal",
                "system": "http://terminology.hl7.org/CodeSystem/v3-ObservationInterpretation"
              }
            ]
          }
        ],
        "subject": {
          "reference": "Patient/a7262cf8-3702-4605-9548-cfff3f9cab75"
        }
      },
      "request": {
        "method": "PUT",
        "url": "Observation/f73f0c43-7283-9ace-b129-68555b0eef89"
      }
    },
    {
      "fullUrl": "urn:uuid:8b4a95b0-98bf-126f-3a73-39f4725e3dc9",
      "resource": {
        "resourceType": "DiagnosticReport",
        "id": "8b4a95b0-98bf-126f-3a73-39f4725e3dc9",
        "identifier": [
          {
            "system": "urn:ietf:rfc:3986",
            "value": "urn:uuid:bfa56c8d-e132-4e16-b38c-999afaf05e36"
          }
        ],
        "status": "final",
        "code": {
          "coding": [
            {
              "code": "2350-7",
              "system": "http://loinc.org"
            }
          ]
        },
        "subject": {
          "reference": "Patient/a7262cf8-3702-4605-9548-cfff3f9cab75"
        },
        "result": [
          {
            "reference": "Observation/eb888a57-1652-152f-705c-6014061a43e0"
          }
        ],
        "meta": {
          "source": [
            "ecr"
          ]
        }
      },
      "request": {
        "method": "PUT",
        "url": "DiagnosticReport/8b4a95b0-98bf-126f-3a73-39f4725e3dc9"
      }
    },
    {
      "fullUrl": "urn:uuid:eb888a57-1652-152f-705c-6014061a43e0",
      "resource": {
        "resourceType": "Observation",
        "id": "eb888a57-1652-152f-705c-6014061a43e0",
        "meta": {
          "profile": [
            "http://hl7.org/fhir/us/core/StructureDefinition/us-core-observationresults"
          ],
          "source": [
            "ecr"
          ]
        },
        "identifier": [
          {
            "system": "urn:oid:2.16.840.1.113883",
            "value": "https://fhir-ehr.cerner.com/r4/da0b5d99-573c-4f5e-aaf6-8d39fa93d033/Observation/M-19459157877/_history/1"
          }
        ],
        "category": [
          {
            "coding": [
              {
                "system": "http://terminology.hl7.org/CodeSystem/observation-category",
                "code": "laboratory"
              }
            ]
          }
        ],
        "status": "final",
        "code": {
          "coding": [
            {
              "code": "2350-7",
              "system": "http://loinc.org"
            }
          ]
        },
        "effectiveDateTime": "2022-05-13T06:52:00Z",
        "interpretation": [
          {
            "coding": [
              {
                "code": "N",
                "display": "Normal",
                "system": "http://terminology.hl7.org/CodeSystem/v3-ObservationInterpretation"
              }
            ]
          }
        ],
        "subject": {
          "reference": "Patient/a7262cf8-3702-4605-9548-cfff3f9cab75"
        }
      },
      "request": {
        "method": "PUT",
        "url": "Observation/eb888a57-1652-152f-705c-6014061a43e0"
      }
    },
    {
      "fullUrl": "urn:uuid:334a7b0b-e775-63c1-3461-49e6c5e1e3c1",
      "resource": {
        "resourceType": "Observation",
        "id": "334a7b0b-e775-63c1-3461-49e6c5e1e3c1",
        "meta": {
          "profile": [
            "http://hl7.org/fhir/us/ecr/StructureDefinition/us-ph-travel-history"
          ],
          "source": [
            "ecr"
          ]
        },
        "code": {
          "coding": [
            {
              "system": "http://snomed.info/sct",
              "code": "420008001",
              "display": "Travel"
            }
          ],
          "text": "Travel History"
        },
        "status": "final",
        "component": [
          {
            "code": {
              "coding": [
                {
                  "system": "http://terminology.hl7.org/CodeSystem/v3-ParticipationType",
                  "code": "LOC",
                  "display": "Location"
                }
              ]
            }
          }
        ],
        "effectiveDateTime": "2022-05-13T07:31:02Z"
      },
      "request": {
        "method": "PUT",
        "url": "Observation/334a7b0b-e775-63c1-3461-49e6c5e1e3c1"
      }
    },
    {
      "fullUrl": "urn:uuid:c368a59d-afcf-2b68-0ed6-164deb6eddfd",
      "resource": {
        "resourceType": "Observation",
        "id": "c368a59d-afcf-2b68-0ed6-164deb6eddfd",
        "meta": {
          "profile": [
            "http://hl7.org/fhir/us/ecr/StructureDefinition/us-ph-travel-history"
          ],
          "source": [
            "ecr"
          ]
        },
        "code": {
          "coding": [
            {
              "system": "http://snomed.info/sct",
              "code": "420008001",
              "display": "Travel"
            }
          ],
          "text": "Travel History"
        },
        "status": "final",
        "component": [
          {
            "code": {
              "coding": [
                {
                  "system": "http://terminology.hl7.org/CodeSystem/v3-ParticipationType",
                  "code": "LOC",
                  "display": "Location"
                }
              ]
            }
          }
        ],
        "effectiveDateTime": "2022-05-13T07:25:22Z"
      },
      "request": {
        "method": "PUT",
        "url": "Observation/c368a59d-afcf-2b68-0ed6-164deb6eddfd"
      }
    },
    {
      "fullUrl": "urn:uuid:",
      "resource": {
        "resourceType": "Observation",
        "meta": {
          "profile": [
            "http://hl7.org/fhir/us/core/StructureDefinition/us-core-observationresults"
          ],
          "source": [
            "ecr"
          ]
        }
      },
      "request": {
        "method": "PUT",
        "url": "Observation/"
      }
    }
  ]
}