{
    "resourceType": "Bundle",
    "type": "batch",
    "entry": [
        {
            "fullUrl": "urn:uuid:1b07c966-cb1a-874d-20df-69d4bb5b5860",
            "resource": {
                "resourceType": "Composition",
                "id": "1b07c966-cb1a-874d-20df-69d4bb5b5860",
                "meta": {
                    "profile": [
                        "http://hl7.org/fhir/us/ecr/StructureDefinition/eicr-composition"
                    ]
                },
                "identifier": [
                    {
                        "use": "official",
                        "type": {
                            "coding": [
                                {
                                    "code": "55751-2",
                                    "display": "Initial Public Health Case Report",
                                    "system": "http://loinc.org"
                                }
                            ]
                        },
                        "value": "1.2.840.114350.1.13.478.3.7.8.688883.232426",
                        "assigner": {
                            "display": "EPC"
                        }
                    }
                ],
                "extension": [
                    {
                        "url": "http://hl7.org/fhir/StructureDefinition/composition-clinicaldocument-versionNumber",
                        "valueString": "3"
                    }
                ],
                "status": "final",
                "type": {
                    "coding": [
                        {
                            "code": "55751-2",
                            "display": "Initial Public Health Case Report",
                            "system": "http://loinc.org"
                        }
                    ]
                },
                "date": "2022-08-05T13:23:32-05:00",
                "title": "Initial Public Health Case Report",
                "confidentiality": "N",
                "section": [
                    {
                        "id": "b7a7ed08-af88-4a31-cc4e-8dddd58b7fc8",
                        "title": "Miscellaneous Notes",
                        "text": {
                            "status": "generated",
                            "div": "<div xmlns=\"http://www.w3.org/1999/xhtml\">Miscellaneous Notes</div>"
                        },
                        "code": {
                            "coding": [
                                {
                                    "code": "10164-2",
                                    "display": "HISTORY OF PRESENT ILLNESS",
                                    "system": "http://loinc.org"
                                }
                            ]
                        },
                        "mode": "snapshot"
                    },
                    {
                        "id": "B676109C-14EB-11ED-8321-0050561597B4",
                        "title": "Immunizations",
                        "text": {
                            "status": "generated",
                            "div": "<div xmlns=\"http://www.w3.org/1999/xhtml\">Immunizations</div>"
                        },
                        "code": {
                            "coding": [
                                {
                                    "code": "11369-6",
                                    "display": "History of Immunization Narrative",
                                    "system": "http://loinc.org"
                                }
                            ]
                        },
                        "mode": "snapshot"
                    },
                    {
                        "id": "B67E0DBA-14EB-11ED-8321-0050561597B4",
                        "title": "Administered Medications",
                        "text": {
                            "status": "generated",
                            "div": "<div xmlns=\"http://www.w3.org/1999/xhtml\">Administered Medications</div>"
                        },
                        "code": {
                            "coding": [
                                {
                                    "code": "29549-3",
                                    "display": "MEDICATIONS ADMINISTERED",
                                    "system": "http://loinc.org"
                                }
                            ]
                        },
                        "mode": "snapshot"
                    },
                    {
                        "id": "b0f06f32-f9b6-5f50-7011-8de9682dac15",
                        "title": "Plan of Treatment",
                        "text": {
                            "status": "generated",
                            "div": "<div xmlns=\"http://www.w3.org/1999/xhtml\">Plan of Treatment</div>"
                        },
                        "code": {
                            "coding": [
                                {
                                    "code": "18776-5",
                                    "display": "Plan of care note",
                                    "system": "http://loinc.org"
                                }
                            ]
                        },
                        "mode": "snapshot"
                    },
                    {
                        "id": "B685A03E-14EB-11ED-8321-0050561597B4",
                        "title": "Problems",
                        "text": {
                            "status": "generated",
                            "div": "<div xmlns=\"http://www.w3.org/1999/xhtml\">Problems</div>"
                        },
                        "code": {
                            "coding": [
                                {
                                    "code": "11450-4",
                                    "display": "Problem list - Reported",
                                    "system": "http://loinc.org"
                                }
                            ]
                        },
                        "mode": "snapshot",
                        "entry": [
                            {
                                "display": "Problem - Foot callus",
                                "reference": "Condition/4b6c7850-8d87-870e-f20c-35c44b1d9fc7"
                            },
                            {
                                "display": "Problem - Absence of menstruation",
                                "reference": "Condition/961b1b42-a9cc-6576-7650-9247b804d447"
                            },
                            {
                                "display": "Problem - Plague pneumonia",
                                "reference": "Condition/df37b540-b007-b823-1574-3591a032a6f9"
                            },
                            {
                                "display": "Problem - Type 1 diabetes",
                                "reference": "Condition/c78abdcc-d2c0-d47e-b0f1-f76a3fd5fe82"
                            },
                            {
                                "display": "Problem - Chest pain on breathing",
                                "reference": "Condition/3110ed8d-4b7c-3a06-bec4-d2c7a75512e7"
                            },
                            {
                                "display": "Problem - COVID toes",
                                "reference": "Condition/82e60bee-e55c-fca2-661f-f9a420dd8271"
                            }
                        ]
                    },
                    {
                        "id": "bc4fa35c-b96e-3a71-cf37-37e4323e8ae2",
                        "title": "Reason for Visit",
                        "text": {
                            "status": "generated",
                            "div": "<div xmlns=\"http://www.w3.org/1999/xhtml\">Reason for Visit</div>"
                        },
                        "code": {
                            "coding": [
                                {
                                    "code": "29299-5",
                                    "display": "REASON FOR VISIT",
                                    "system": "http://loinc.org"
                                }
                            ]
                        },
                        "mode": "snapshot",
                        "extension": [
                            {
                                "url": "http://hl7.org/fhir/cda/ccda/StructureDefinition/2.16.840.1.113883.10.20.22.2.12",
                                "valueString": "Not on file"
                            }
                        ]
                    },
                    {
                        "id": "B6938A82-14EB-11ED-8321-0050561597B4",
                        "title": "Results",
                        "text": {
                            "status": "generated",
                            "div": "<div xmlns=\"http://www.w3.org/1999/xhtml\">Results</div>"
                        },
                        "code": {
                            "coding": [
                                {
                                    "code": "30954-2",
                                    "display": "Relevant diagnostic tests/laboratory data Narrative",
                                    "system": "http://loinc.org"
                                }
                            ]
                        },
                        "mode": "snapshot",
                        "entry": [
                            {
                                "display": "Other High Risk HPV DNA (Result)",
                                "reference": "Observation/ff803400-fce5-2cdf-ddf2-3e32b50f8b6f"
                            },
                            {
                                "display": "HPV Genotype 16 DNA (Result)",
                                "reference": "Observation/0ab0318f-996c-48f5-ac97-031dcc4ceb63"
                            },
                            {
                                "display": "HPV Genotype 18 DNA (Result)",
                                "reference": "Observation/1863c018-d142-29c1-2c97-1ef39472a14c"
                            },
                            {
                                "display": "Lab Interpretation",
                                "reference": "Observation/df1257f0-ecf8-4f9f-b5b0-c77d7bdf55ea"
                            },
                            {
                                "display": "CMV Quant DNA (Quantitative)",
                                "reference": "Observation/7056e695-901f-f98d-00f0-fb400ea4f4a0"
                            },
                            {
                                "display": "CMV Quant DNA (Quantitative)",
                                "reference": "Observation/369da706-fafe-0bb9-244f-8e6cf89813d0"
                            },
                            {
                                "display": "CMV Quant DNA (Quantitative)",
                                "reference": "Observation/22ea6072-2cda-0902-9340-6c9d3f9549bc"
                            },
                            {
                                "display": "SARS-CoV-2 Nucleic Acid (Result)",
                                "reference": "Observation/dc36481d-b76b-f1df-fddc-743c9dec21ac"
                            },
                            {
                                "display": "Influenza A PCR (Result)",
                                "reference": "Observation/85df5f22-7b04-c0e1-b2e2-4c9b36251fc7"
                            },
                            {
                                "display": "Influenza B PCR (Result)",
                                "reference": "Observation/e0e67e0e-1b27-45d1-ffaa-d1a80a10a292"
                            },
                            {
                                "display": "Lab Interpretation",
                                "reference": "Observation/75967878-899b-c449-bfe0-cfeb72bce400"
                            },
                            {
                                "display": "SARS-CoV-2 Nucleic Acid (Result)",
                                "reference": "Observation/b933ea33-46fd-f2f0-1103-5f11eca4076c"
                            },
                            {
                                "display": "Influenza A PCR (Result)",
                                "reference": "Observation/b6ff4c67-41d5-447f-e6a3-64e23988cc07"
                            },
                            {
                                "display": "Influenza B PCR (Result)",
                                "reference": "Observation/6f60185f-e804-6a06-30f9-d3f64040062c"
                            },
                            {
                                "display": "Lab Interpretation",
                                "reference": "Observation/352f53cf-6661-8937-3177-970403bf4aca"
                            },
                            {
                                "display": "SARS-CoV-2 Nucleic Acid (Result)",
                                "reference": "Observation/9c0b9043-b09e-49e9-5362-ebae4263c8db"
                            },
                            {
                                "display": "Influenza A PCR (Result)",
                                "reference": "Observation/531eee4e-6aab-8da4-2a6f-98c2548a64ef"
                            },
                            {
                                "display": "Influenza B PCR (Result)",
                                "reference": "Observation/a7c1bd02-c184-9969-a9cb-ca96bd5c479f"
                            },
                            {
                                "display": "Lab Interpretation",
                                "reference": "Observation/84f7885f-243c-d36b-6422-81a101657bda"
                            }
                        ]
                    },
                    {
                        "id": "7d59457e-5fe5-95c8-129a-786ad2f6f177",
                        "title": "Social History",
                        "text": {
                            "status": "generated",
                            "div": "<div xmlns=\"http://www.w3.org/1999/xhtml\">Social History</div>"
                        },
                        "code": {
                            "coding": [
                                {
                                    "code": "29762-2",
                                    "display": "Social history Narrative",
                                    "system": "http://loinc.org"
                                }
                            ]
                        },
                        "mode": "snapshot"
                    },
                    {
                        "id": "469650e6-087b-b409-4057-f11241054f39",
                        "title": "Encounter Details",
                        "text": {
                            "status": "generated",
                            "div": "<div xmlns=\"http://www.w3.org/1999/xhtml\">Encounter Details</div>"
                        },
                        "code": {
                            "coding": [
                                {
                                    "code": "46240-8",
                                    "display": "History of Hospitalizations+Outpatient visits Narrative",
                                    "system": "http://loinc.org"
                                }
                            ]
                        },
                        "mode": "snapshot"
                    },
                    {
                        "id": "d8c9042b-18d1-fbda-a7ce-c5a6193564c1",
                        "title": "Reportability Response Information Section",
                        "text": {
                            "status": "generated",
                            "div": "<div xmlns=\"http://www.w3.org/1999/xhtml\">Reportability Response Information Section</div>"
                        },
                        "extension": [
                            {
                                "url": "http://hl7.org/fhir/us/ecr/StructureDefinition/rr-composition",
                                "valueIdentifier": {
                                    "use": "official",
                                    "type": {
                                        "coding": [
                                            {
                                                "code": "88085-6",
                                                "display": "Reportability response report Document Public health",
                                                "system": "http://loinc.org"
                                            }
                                        ]
                                    },
                                    "value": "5a9b72e6-4c23-4ac3-bc00-3df5bd1ed766"
                                }
                            },
                            {
                                "url": "http://hl7.org/fhir/us/ecr/StructureDefinition/rr-eicr-processing-status-extension",
                                "valueCodeableConcept": {
                                    "coding": [
                                        {
                                            "code": "RRVS19",
                                            "display": "eICR processed",
                                            "system": "urn:oid:2.16.840.1.114222.4.5.274"
                                        }
                                    ]
                                }
                            }
                        ],
                        "code": {
                            "coding": [
                                {
                                    "code": "88085-6",
                                    "display": "Reportability response report Document Public health",
                                    "system": "http://loinc.org"
                                }
                            ]
                        },
                        "entry": [
                            {
                                "display": "Relevant Reportable Condition Observation - Disease caused by severe acute respiratory syndrome coronavirus 2 (disorder)",
                                "reference": "Observation/6d37625c-1cac-4b9f-8ec7-85dad62024c2"
                            },
                            {
                                "display": "Relevant Reportable Condition Observation - Disease caused by severe acute respiratory syndrome coronavirus 2 (disorder)",
                                "reference": "Observation/ead77086-900a-4440-a81b-e6ebe15913d5"
                            },
                            {
                                "display": "Relevant Reportable Condition Observation - Plague (disorder)",
                                "reference": "Observation/8ca4216c-f483-4cc9-bf3c-0078e2c3159e"
                            },
                            {
                                "display": "Relevant Reportable Condition Observation - Disease caused by severe acute respiratory syndrome coronavirus 2 (disorder)",
                                "reference": "Observation/5bc85b51-2c0c-4c52-9d04-e0a4d2f6b0ae"
                            }
                        ]
                    }
                ],
                "subject": {
                    "reference": "Patient/f81e8046-b4bc-f2fa-72b6-10f9a3ca1359"
                },
                "encounter": {
                    "reference": "Encounter/1758ebe1-a3df-1ac3-4dbf-1d4d3bf4db2e"
                },
                "custodian": {
                    "reference": "Organization/d319a926-0eb3-5847-3b21-db8b778b4f07"
                },
                "author": [
                    {
                        "reference": "Practitioner/550b9626-bc9e-7d6b-c5d8-e41c2000ab85"
                    },
                    {
                        "reference": "Device/f8f3be21-9c92-e521-2325-626788f3c976"
                    }
                ]
            },
            "request": {
                "method": "PUT",
                "url": "Composition/1b07c966-cb1a-874d-20df-69d4bb5b5860"
            }
        },
        {
            "fullUrl": "urn:uuid:1758ebe1-a3df-1ac3-4dbf-1d4d3bf4db2e",
            "resource": {
                "resourceType": "Encounter",
                "id": "1758ebe1-a3df-1ac3-4dbf-1d4d3bf4db2e",
                "status": "unknown",
                "class": {
                    "code": "AMB",
                    "display": "Ambulatory",
                    "system": "urn:oid:2.16.840.1.113883.5.4"
                },
                "identifier": [
                    {
                        "system": "urn:oid:1.2.840.114350.1.13.478.3.7.3.698084.8",
                        "value": "1800200459956"
                    }
                ],
                "period": {
                    "start": "2022-07-13",
                    "end": "2022-07-13"
                },
                "subject": {
                    "reference": "Patient/f81e8046-b4bc-f2fa-72b6-10f9a3ca1359"
                },
                "location": [
                    {
                        "id": "1.2.840.114350.1.13.478.3.7.2.686980",
                        "location": {
                            "reference": "Location/6c85992b-23ac-fd5f-c4f8-a6318d625474",
                            "display": "Vanderbilt Wilson County Adult Hospital"
                        },
                        "extension": [
                            {
                                "url": "http://build.fhir.org/ig/HL7/case-reporting/StructureDefinition-us-ph-location-definitions.html#Location.type",
                                "valueCodeableConcept": {
                                    "coding": [
                                        {
                                            "code": "257622000",
                                            "display": "Healthcare Facility",
                                            "system": "http://snomed.info/sct"
                                        }
                                    ]
                                }
                            }
                        ]
                    }
                ],
                "participant": [
                    {
                        "type": [
                            {
                                "coding": [
                                    {
                                        "system": "http://terminology.hl7.org/CodeSystem/v3-ParticipationType",
                                        "code": "ATND"
                                    }
                                ]
                            }
                        ],
                        "individual": {
                            "reference": "Practitioner/79842b6e-724b-8d57-dd2a-8d4b915f0558"
                        }
                    }
                ]
            },
            "request": {
                "method": "PUT",
                "url": "Encounter/1758ebe1-a3df-1ac3-4dbf-1d4d3bf4db2e"
            }
        },
        {
            "fullUrl": "urn:uuid:6c85992b-23ac-fd5f-c4f8-a6318d625474",
            "resource": {
                "resourceType": "Location",
                "id": "6c85992b-23ac-fd5f-c4f8-a6318d625474",
                "identifier": [
                    {
                        "value": "1.2.840.114350.1.13.478.3.7.2.686980"
                    }
                ],
                "name": "Vanderbilt Wilson County Adult Hospital",
                "address": {
                    "use": "work",
                    "city": "Lebanon",
                    "state": "TN",
                    "postalCode": "37087",
                    "district": "WILSON"
                },
                "type": [
                    {
                        "coding": [
                            {
                                "code": "257622000",
                                "display": "Healthcare Facility",
                                "system": "http://snomed.info/sct"
                            }
                        ]
                    }
                ]
            },
            "request": {
                "method": "PUT",
                "url": "Location/6c85992b-23ac-fd5f-c4f8-a6318d625474"
            }
        },
        {
            "fullUrl": "urn:uuid:79842b6e-724b-8d57-dd2a-8d4b915f0558",
            "resource": {
                "resourceType": "Practitioner",
                "id": "79842b6e-724b-8d57-dd2a-8d4b915f0558",
                "meta": {
                    "profile": [
                        "http://hl7.org/fhir/us/core/StructureDefinition/us-core-practitioner"
                    ]
                },
                "extension": [
                    {
                        "url": "http://hl7.org/fhir/StructureDefinition/_datatype",
                        "valueString": "Responsible Party"
                    }
                ],
                "name": [
                    {
                        "use": "usual",
                        "text": "Vanderbilt University Medical Center"
                    }
                ],
                "address": [
                    {
                        "use": "work",
                        "line": [
                            "3401 West End Ave"
                        ],
                        "city": "NASHVILLE",
                        "state": "TN",
                        "country": "USA",
                        "postalCode": "37203",
                        "district": "DAVIDSON"
                    }
                ]
            },
            "request": {
                "method": "PUT",
                "url": "Practitioner/79842b6e-724b-8d57-dd2a-8d4b915f0558"
            }
        },
        {
            "fullUrl": "urn:uuid:6d37625c-1cac-4b9f-8ec7-85dad62024c2",
            "resource": {
                "resourceType": "Observation",
                "id": "6d37625c-1cac-4b9f-8ec7-85dad62024c2",
                "meta": {
                    "profile": [
                        "http://hl7.org/fhir/us/core/StructureDefinition/us-core-observationresults"
                    ]
                },
                "identifier": [
                    {
                        "system": "urn:ietf:rfc:3986",
                        "value": "urn:uuid:6d37625c-1cac-4b9f-8ec7-85dad62024c2"
                    }
                ],
                "status": "final",
                "code": {
                    "coding": [
                        {
                            "code": "64572001",
                            "display": "Condition",
                            "system": "http://snomed.info/sct"
                        },
                        {
                            "code": "75323-6",
                            "display": "Condition",
                            "system": "http://loinc.org"
                        }
                    ]
                },
                "valueCodeableConcept": {
                    "coding": [
                        {
                            "code": "840539006",
                            "display": "Disease caused by severe acute respiratory syndrome coronavirus 2 (disorder)",
                            "system": "http://snomed.info/sct"
                        }
                    ]
                }
            },
            "request": {
                "method": "PUT",
                "url": "Observation/6d37625c-1cac-4b9f-8ec7-85dad62024c2"
            }
        },
        {
            "fullUrl": "urn:uuid:ead77086-900a-4440-a81b-e6ebe15913d5",
            "resource": {
                "resourceType": "Observation",
                "id": "ead77086-900a-4440-a81b-e6ebe15913d5",
                "meta": {
                    "profile": [
                        "http://hl7.org/fhir/us/core/StructureDefinition/us-core-observationresults"
                    ]
                },
                "identifier": [
                    {
                        "system": "urn:ietf:rfc:3986",
                        "value": "urn:uuid:ead77086-900a-4440-a81b-e6ebe15913d5"
                    }
                ],
                "status": "final",
                "code": {
                    "coding": [
                        {
                            "code": "64572001",
                            "display": "Condition",
                            "system": "http://snomed.info/sct"
                        },
                        {
                            "code": "75323-6",
                            "display": "Condition",
                            "system": "http://loinc.org"
                        }
                    ]
                },
                "valueCodeableConcept": {
                    "coding": [
                        {
                            "code": "840539006",
                            "display": "Disease caused by severe acute respiratory syndrome coronavirus 2 (disorder)",
                            "system": "http://snomed.info/sct"
                        }
                    ]
                }
            },
            "request": {
                "method": "PUT",
                "url": "Observation/ead77086-900a-4440-a81b-e6ebe15913d5"
            }
        },
        {
            "fullUrl": "urn:uuid:8ca4216c-f483-4cc9-bf3c-0078e2c3159e",
            "resource": {
                "resourceType": "Observation",
                "id": "8ca4216c-f483-4cc9-bf3c-0078e2c3159e",
                "meta": {
                    "profile": [
                        "http://hl7.org/fhir/us/core/StructureDefinition/us-core-observationresults"
                    ]
                },
                "identifier": [
                    {
                        "system": "urn:ietf:rfc:3986",
                        "value": "urn:uuid:8ca4216c-f483-4cc9-bf3c-0078e2c3159e"
                    }
                ],
                "status": "final",
                "code": {
                    "coding": [
                        {
                            "code": "64572001",
                            "display": "Condition",
                            "system": "http://snomed.info/sct"
                        },
                        {
                            "code": "75323-6",
                            "display": "Condition",
                            "system": "http://loinc.org"
                        }
                    ]
                },
                "valueCodeableConcept": {
                    "coding": [
                        {
                            "code": "58750007",
                            "display": "Plague (disorder)",
                            "system": "http://snomed.info/sct"
                        }
                    ]
                }
            },
            "request": {
                "method": "PUT",
                "url": "Observation/8ca4216c-f483-4cc9-bf3c-0078e2c3159e"
            }
        },
        {
            "fullUrl": "urn:uuid:5bc85b51-2c0c-4c52-9d04-e0a4d2f6b0ae",
            "resource": {
                "resourceType": "Observation",
                "id": "5bc85b51-2c0c-4c52-9d04-e0a4d2f6b0ae",
                "meta": {
                    "profile": [
                        "http://hl7.org/fhir/us/core/StructureDefinition/us-core-observationresults"
                    ]
                },
                "identifier": [
                    {
                        "system": "urn:ietf:rfc:3986",
                        "value": "urn:uuid:5bc85b51-2c0c-4c52-9d04-e0a4d2f6b0ae"
                    }
                ],
                "status": "final",
                "code": {
                    "coding": [
                        {
                            "code": "64572001",
                            "display": "Condition",
                            "system": "http://snomed.info/sct"
                        },
                        {
                            "code": "75323-6",
                            "display": "Condition",
                            "system": "http://loinc.org"
                        }
                    ]
                },
                "valueCodeableConcept": {
                    "coding": [
                        {
                            "code": "840539006",
                            "display": "Disease caused by severe acute respiratory syndrome coronavirus 2 (disorder)",
                            "system": "http://snomed.info/sct"
                        }
                    ]
                }
            },
            "request": {
                "method": "PUT",
                "url": "Observation/5bc85b51-2c0c-4c52-9d04-e0a4d2f6b0ae"
            }
        },
        {
            "fullUrl": "urn:uuid:d319a926-0eb3-5847-3b21-db8b778b4f07",
            "resource": {
                "resourceType": "Organization",
                "id": "d319a926-0eb3-5847-3b21-db8b778b4f07",
                "identifier": [
                    {
                        "system": "urn:oid:1.2.840.114350.1.13.478.2.7.5.737384.61",
                        "value": "1104202761"
                    }
                ],
                "name": "Vanderbilt University Medical Center",
                "address": [
                    {
                        "use": "work",
                        "line": [
                            "3401 West End Ave"
                        ],
                        "city": "NASHVILLE",
                        "state": "TN",
                        "country": "USA",
                        "postalCode": "37203",
                        "district": "DAVIDSON"
                    }
                ],
                "telecom": [
                    {
                        "system": "phone",
                        "value": "+1-615-322-5000",
                        "use": "work"
                    }
                ]
            },
            "request": {
                "method": "PUT",
                "url": "Organization/d319a926-0eb3-5847-3b21-db8b778b4f07"
            }
        },
        {
            "fullUrl": "urn:uuid:550b9626-bc9e-7d6b-c5d8-e41c2000ab85",
            "resource": {
                "resourceType": "Practitioner",
                "id": "550b9626-bc9e-7d6b-c5d8-e41c2000ab85",
                "meta": {
                    "profile": [
                        "http://hl7.org/fhir/us/core/StructureDefinition/us-core-practitioner"
                    ]
                },
                "identifier": [
                    {
                        "system": "urn:oid:1.2.840.114350.1.13.478.3.7.2.697780",
                        "value": "EDILABIH"
                    }
                ],
                "name": [
                    {
                        "family": "Interface",
                        "given": [
                            "Lab"
                        ]
                    },
                    {
                        "use": "usual",
                        "text": "Vanderbilt University Medical Center"
                    }
                ],
                "address": [
                    {
                        "use": "work",
                        "line": [
                            "3401 West End Ave"
                        ],
                        "city": "NASHVILLE",
                        "state": "TN",
                        "country": "USA",
                        "postalCode": "37203",
                        "district": "DAVIDSON"
                    }
                ]
            },
            "request": {
                "method": "PUT",
                "url": "Practitioner/550b9626-bc9e-7d6b-c5d8-e41c2000ab85"
            }
        },
        {
            "fullUrl": "urn:uuid:f8f3be21-9c92-e521-2325-626788f3c976",
            "resource": {
                "resourceType": "Device",
                "id": "f8f3be21-9c92-e521-2325-626788f3c976",
                "identifier": [
                    {
                        "system": "urn:oid:1.2.840.114350.1.1",
                        "value": "10.2"
                    }
                ],
                "type": {
                    "coding": [
                        {
                            "display": "Epic - Version 10.2"
                        }
                    ]
                },
                "manufacturer": "Epic - Version 10.2",
                "version": [
                    {
                        "value": "Epic - Version 10.2"
                    }
                ],
                "owner": {
                    "reference": "Organization/d319a926-0eb3-5847-3b21-db8b778b4f07"
                }
            },
            "request": {
                "method": "PUT",
                "url": "Device/f8f3be21-9c92-e521-2325-626788f3c976"
            }
        },
        {
            "fullUrl": "urn:uuid:f81e8046-b4bc-f2fa-72b6-10f9a3ca1359",
            "resource": {
                "resourceType": "Patient",
                "id": "f81e8046-b4bc-f2fa-72b6-10f9a3ca1359",
                "meta": {
                    "profile": [
                        "http://hl7.org/fhir/us/core/StructureDefinition/us-core-patient"
                    ]
                },
                "identifier": [
                    {
                        "system": "urn:oid:1.2.840.114350.1.13.478.3.7.3.688884.100",
                        "value": "VAN4N7Q2ZJL42G8"
                    },
                    {
                        "system": "urn:oid:1.2.840.114350.1.13.478.3.7.5.737384.14",
                        "value": "002001257",
                        "assigner": {
                            "display": "VUMC"
                        }
                    }
                ],
                "name": [
                    {
                        "use": "official",
                        "family": "Ztest",
                        "given": [
                            "Apple"
                        ]
                    }
                ],
                "birthDate": "1965-10-05",
                "gender": "female",
                "extension": [
                    {
                        "url": "http://hl7.org/fhir/us/core/StructureDefinition/us-core-race",
                        "extension": [
                            {
                                "url": "ombCategory",
                                "valueCoding": {
                                    "code": "2106-3",
                                    "display": "White"
                                }
                            },
                            {
                                "url": "text",
                                "valueString": "White"
                            }
                        ]
                    },
                    {
                        "url": "http://hl7.org/fhir/us/core/StructureDefinition/us-core-ethnicity",
                        "extension": [
                            {
                                "url": "ombCategory",
                                "valueCoding": {
                                    "code": "2186-5",
                                    "display": "Not Hispanic or Latino"
                                }
                            },
                            {
                                "url": "text",
                                "valueString": "Not Hispanic or Latino"
                            }
                        ]
                    }
                ],
                "address": [
                    {
                        "use": "home",
                        "line": [
                            "999 Single Lane"
                        ],
                        "city": "BEVERLY HILLS",
                        "state": "CA",
                        "country": "USA",
                        "postalCode": "90210",
                        "district": "LOS ANGELES"
                    },
                    {
                        "use": "home",
                        "country": "USA"
                    }
                ],
                "telecom": [
                    {
                        "system": "phone",
                        "value": "+1-615-999-9999",
                        "use": "home"
                    },
                    {
                        "system": "phone",
                        "value": "+1-615-999-9999",
                        "use": "mobile"
                    },
                    {
                        "system": "email",
                        "value": "deidre.wright@vumc.org"
                    },
                    {
                        "system": "email",
                        "value": "none@none.com"
                    }
                ],
                "communication": [
                    {
                        "language": {
                            "coding": [
                                {
                                    "system": "urn:ietf:bcp:47",
                                    "code": "en",
                                    "display": "English"
                                }
                            ]
                        },
                        "preferred": true
                    }
                ]
            },
            "request": {
                "method": "PUT",
                "url": "Patient/f81e8046-b4bc-f2fa-72b6-10f9a3ca1359"
            }
        },
        {
            "fullUrl": "urn:uuid:4b6c7850-8d87-870e-f20c-35c44b1d9fc7",
            "resource": {
                "resourceType": "Condition",
                "id": "4b6c7850-8d87-870e-f20c-35c44b1d9fc7",
                "identifier": [
                    {
                        "system": "urn:oid:1.2.840.114350.1.13.478.3.7.2.768076",
                        "value": "52111"
                    }
                ],
                "clinicalStatus": {
                    "coding": [
                        {
                            "code": "55561003",
                            "display": "Active",
                            "system": "http://snomed.info/sct"
                        }
                    ]
                },
                "category": [
                    {
                        "coding": [
                            {
                                "code": "problem-item-list",
                                "display": "Problem List Item",
                                "system": "http://hl7.org/fhir/us/core/ValueSet/us-core-condition-category"
                            }
                        ]
                    }
                ],
                "code": {
                    "coding": [
                        {
                            "code": "L84",
                            "display": "Foot callus",
                            "system": "urn:oid:2.16.840.1.113883.6.90"
                        }
                    ]
                },
                "onsetDateTime": "2017-08-11",
                "subject": {
                    "reference": "Patient/f81e8046-b4bc-f2fa-72b6-10f9a3ca1359"
                }
            },
            "request": {
                "method": "PUT",
                "url": "Condition/4b6c7850-8d87-870e-f20c-35c44b1d9fc7"
            }
        },
        {
            "fullUrl": "urn:uuid:961b1b42-a9cc-6576-7650-9247b804d447",
            "resource": {
                "resourceType": "Condition",
                "id": "961b1b42-a9cc-6576-7650-9247b804d447",
                "identifier": [
                    {
                        "system": "urn:oid:1.2.840.114350.1.13.478.3.7.2.768076",
                        "value": "66245"
                    }
                ],
                "clinicalStatus": {
                    "coding": [
                        {
                            "code": "55561003",
                            "display": "Active",
                            "system": "http://snomed.info/sct"
                        }
                    ]
                },
                "category": [
                    {
                        "coding": [
                            {
                                "code": "problem-item-list",
                                "display": "Problem List Item",
                                "system": "http://hl7.org/fhir/us/core/ValueSet/us-core-condition-category"
                            }
                        ]
                    }
                ],
                "code": {
                    "coding": [
                        {
                            "code": "N91.2",
                            "display": "Absence of menstruation",
                            "system": "urn:oid:2.16.840.1.113883.6.90"
                        }
                    ]
                },
                "onsetDateTime": "2018-06-12",
                "subject": {
                    "reference": "Patient/f81e8046-b4bc-f2fa-72b6-10f9a3ca1359"
                }
            },
            "request": {
                "method": "PUT",
                "url": "Condition/961b1b42-a9cc-6576-7650-9247b804d447"
            }
        },
        {
            "fullUrl": "urn:uuid:df37b540-b007-b823-1574-3591a032a6f9",
            "resource": {
                "resourceType": "Condition",
                "id": "df37b540-b007-b823-1574-3591a032a6f9",
                "identifier": [
                    {
                        "system": "urn:oid:1.2.840.114350.1.13.478.3.7.2.768076",
                        "value": "90498"
                    }
                ],
                "clinicalStatus": {
                    "coding": [
                        {
                            "code": "55561003",
                            "display": "Active",
                            "system": "http://snomed.info/sct"
                        }
                    ]
                },
                "category": [
                    {
                        "coding": [
                            {
                                "code": "problem-item-list",
                                "display": "Problem List Item",
                                "system": "http://hl7.org/fhir/us/core/ValueSet/us-core-condition-category"
                            }
                        ]
                    }
                ],
                "code": {
                    "coding": [
                        {
                            "code": "A20.2",
                            "display": "Plague pneumonia",
                            "system": "urn:oid:2.16.840.1.113883.6.90"
                        }
                    ]
                },
                "onsetDateTime": "2021-06-16",
                "subject": {
                    "reference": "Patient/f81e8046-b4bc-f2fa-72b6-10f9a3ca1359"
                }
            },
            "request": {
                "method": "PUT",
                "url": "Condition/df37b540-b007-b823-1574-3591a032a6f9"
            }
        },
        {
            "fullUrl": "urn:uuid:c78abdcc-d2c0-d47e-b0f1-f76a3fd5fe82",
            "resource": {
                "resourceType": "Condition",
                "id": "c78abdcc-d2c0-d47e-b0f1-f76a3fd5fe82",
                "identifier": [
                    {
                        "system": "urn:oid:1.2.840.114350.1.13.478.3.7.2.768076",
                        "value": "95631"
                    }
                ],
                "clinicalStatus": {
                    "coding": [
                        {
                            "code": "55561003",
                            "display": "Active",
                            "system": "http://snomed.info/sct"
                        }
                    ]
                },
                "category": [
                    {
                        "coding": [
                            {
                                "code": "problem-item-list",
                                "display": "Problem List Item",
                                "system": "http://hl7.org/fhir/us/core/ValueSet/us-core-condition-category"
                            }
                        ]
                    }
                ],
                "code": {
                    "coding": [
                        {
                            "code": "E10.9",
                            "display": "Type 1 diabetes",
                            "system": "urn:oid:2.16.840.1.113883.6.90"
                        }
                    ]
                },
                "onsetDateTime": "2022-02-28",
                "subject": {
                    "reference": "Patient/f81e8046-b4bc-f2fa-72b6-10f9a3ca1359"
                }
            },
            "request": {
                "method": "PUT",
                "url": "Condition/c78abdcc-d2c0-d47e-b0f1-f76a3fd5fe82"
            }
        },
        {
            "fullUrl": "urn:uuid:3110ed8d-4b7c-3a06-bec4-d2c7a75512e7",
            "resource": {
                "resourceType": "Condition",
                "id": "3110ed8d-4b7c-3a06-bec4-d2c7a75512e7",
                "identifier": [
                    {
                        "system": "urn:oid:1.2.840.114350.1.13.478.3.7.2.768076",
                        "value": "97646"
                    }
                ],
                "clinicalStatus": {
                    "coding": [
                        {
                            "code": "55561003",
                            "display": "Active",
                            "system": "http://snomed.info/sct"
                        }
                    ]
                },
                "category": [
                    {
                        "coding": [
                            {
                                "code": "problem-item-list",
                                "display": "Problem List Item",
                                "system": "http://hl7.org/fhir/us/core/ValueSet/us-core-condition-category"
                            }
                        ]
                    }
                ],
                "code": {
                    "coding": [
                        {
                            "code": "R07.1",
                            "display": "Chest pain on breathing",
                            "system": "urn:oid:2.16.840.1.113883.6.90"
                        }
                    ]
                },
                "onsetDateTime": "2022-05-26",
                "subject": {
                    "reference": "Patient/f81e8046-b4bc-f2fa-72b6-10f9a3ca1359"
                }
            },
            "request": {
                "method": "PUT",
                "url": "Condition/3110ed8d-4b7c-3a06-bec4-d2c7a75512e7"
            }
        },
        {
            "fullUrl": "urn:uuid:82e60bee-e55c-fca2-661f-f9a420dd8271",
            "resource": {
                "resourceType": "Condition",
                "id": "82e60bee-e55c-fca2-661f-f9a420dd8271",
                "identifier": [
                    {
                        "system": "urn:oid:1.2.840.114350.1.13.478.3.7.2.768076",
                        "value": "98700"
                    }
                ],
                "clinicalStatus": {
                    "coding": [
                        {
                            "code": "55561003",
                            "display": "Active",
                            "system": "http://snomed.info/sct"
                        }
                    ]
                },
                "category": [
                    {
                        "coding": [
                            {
                                "code": "problem-item-list",
                                "display": "Problem List Item",
                                "system": "http://hl7.org/fhir/us/core/ValueSet/us-core-condition-category"
                            }
                        ]
                    }
                ],
                "code": {
                    "coding": [
                        {
                            "code": "U07.1",
                            "display": "COVID toes",
                            "system": "urn:oid:2.16.840.1.113883.6.90"
                        }
                    ]
                },
                "onsetDateTime": "2022-07-13",
                "subject": {
                    "reference": "Patient/f81e8046-b4bc-f2fa-72b6-10f9a3ca1359"
                }
            },
            "request": {
                "method": "PUT",
                "url": "Condition/82e60bee-e55c-fca2-661f-f9a420dd8271"
            }
        },
        {
            "fullUrl": "urn:uuid:a6a554f9-b486-2155-78d1-5c0f35ff19d0",
            "resource": {
                "resourceType": "DiagnosticReport",
                "id": "a6a554f9-b486-2155-78d1-5c0f35ff19d0",
                "identifier": [
                    {
                        "system": "urn:oid:1.2.840.114350.1.13.478.3.7.2.798268",
                        "value": "2118094"
                    }
                ],
                "status": "final",
                "code": {
                    "coding": [
                        {
                            "display": "FISH HER2/neu",
                            "system": "http://loinc.org"
                        }
                    ]
                },
                "effectivePeriod": {
                    "start": "2022-07-20T13:58:00Z",
                    "end": "2022-07-20T13:58:00Z"
                },
                "subject": {
                    "reference": "Patient/f81e8046-b4bc-f2fa-72b6-10f9a3ca1359"
                },
                "performer": [
                    {
                        "reference": "Organization/22c6cdd0-bde1-e220-9ba4-2c2802f795ad"
                    }
                ]
            },
            "request": {
                "method": "PUT",
                "url": "DiagnosticReport/a6a554f9-b486-2155-78d1-5c0f35ff19d0"
            }
        },
        {
            "fullUrl": "urn:uuid:22c6cdd0-bde1-e220-9ba4-2c2802f795ad",
            "resource": {
                "resourceType": "Organization",
                "id": "22c6cdd0-bde1-e220-9ba4-2c2802f795ad",
                "name": "VUMC CERNER LAB",
                "address": [
                    {
                        "use": "work",
                        "line": [
                            "4605 TVC VUMC",
                            "1301 Medical Center Drive"
                        ],
                        "city": "NASHVILLE",
                        "state": "TN",
                        "country": "USA",
                        "postalCode": "37232-5310",
                        "district": "DAVIDSON"
                    }
                ]
            },
            "request": {
                "method": "PUT",
                "url": "Organization/22c6cdd0-bde1-e220-9ba4-2c2802f795ad"
            }
        },
        {
            "fullUrl": "urn:uuid:d566d47d-06e2-ed0e-dddc-5319f6b8c182",
            "resource": {
                "resourceType": "DiagnosticReport",
                "id": "d566d47d-06e2-ed0e-dddc-5319f6b8c182",
                "identifier": [
                    {
                        "system": "urn:oid:1.2.840.114350.1.13.478.3.7.2.798268",
                        "value": "2118095"
                    }
                ],
                "status": "final",
                "code": {
                    "coding": [
                        {
                            "display": "Snapshot Glioma Pnl",
                            "system": "http://loinc.org"
                        }
                    ]
                },
                "effectivePeriod": {
                    "start": "2022-07-20T13:58:00Z",
                    "end": "2022-07-20T13:58:00Z"
                },
                "subject": {
                    "reference": "Patient/f81e8046-b4bc-f2fa-72b6-10f9a3ca1359"
                },
                "performer": [
                    {
                        "reference": "Organization/22c6cdd0-bde1-e220-9ba4-2c2802f795ad"
                    }
                ]
            },
            "request": {
                "method": "PUT",
                "url": "DiagnosticReport/d566d47d-06e2-ed0e-dddc-5319f6b8c182"
            }
        },
        {
            "fullUrl": "urn:uuid:ac9ec049-888f-99c6-f18a-30fb522f11b0",
            "resource": {
                "resourceType": "DiagnosticReport",
                "id": "ac9ec049-888f-99c6-f18a-30fb522f11b0",
                "identifier": [
                    {
                        "system": "urn:oid:1.2.840.114350.1.13.478.3.7.2.798268",
                        "value": "2118096"
                    }
                ],
                "status": "final",
                "code": {
                    "coding": [
                        {
                            "display": "PCR Human Papillomavirus High Risk Types",
                            "system": "http://loinc.org"
                        }
                    ]
                },
                "effectivePeriod": {
                    "start": "2022-07-20T13:58:00Z",
                    "end": "2022-07-20T13:58:00Z"
                },
                "subject": {
                    "reference": "Patient/f81e8046-b4bc-f2fa-72b6-10f9a3ca1359"
                },
                "performer": [
                    {
                        "reference": "Organization/22c6cdd0-bde1-e220-9ba4-2c2802f795ad"
                    }
                ],
                "result": [
                    {
                        "reference": "Observation/ff803400-fce5-2cdf-ddf2-3e32b50f8b6f"
                    },
                    {
                        "reference": "Observation/0ab0318f-996c-48f5-ac97-031dcc4ceb63"
                    },
                    {
                        "reference": "Observation/1863c018-d142-29c1-2c97-1ef39472a14c"
                    },
                    {
                        "reference": "Observation/df1257f0-ecf8-4f9f-b5b0-c77d7bdf55ea"
                    }
                ]
            },
            "request": {
                "method": "PUT",
                "url": "DiagnosticReport/ac9ec049-888f-99c6-f18a-30fb522f11b0"
            }
        },
        {
            "fullUrl": "urn:uuid:ff803400-fce5-2cdf-ddf2-3e32b50f8b6f",
            "resource": {
                "resourceType": "Observation",
                "id": "ff803400-fce5-2cdf-ddf2-3e32b50f8b6f",
                "meta": {
                    "profile": [
                        "http://hl7.org/fhir/us/core/StructureDefinition/us-core-observationresults"
                    ]
                },
                "identifier": [
                    {
                        "system": "urn:oid:1.2.840.114350.1.13.478.3.7.6.798268.2000",
                        "value": "2118096.1"
                    }
                ],
                "category": [
                    {
                        "coding": [
                            {
                                "system": "http://terminology.hl7.org/CodeSystem/observation-category",
                                "code": "laboratory"
                            }
                        ]
                    }
                ],
                "status": "final",
                "code": {
                    "coding": [
                        {
                            "code": "71431-1",
                            "display": "Other High Risk HPV DNA (Result)",
                            "system": "http://loinc.org"
                        }
                    ]
                },
                "effectiveDateTime": "2022-07-20T14:12:18Z",
                "valueString": "Not Detected",
                "extension": [
                    {
                        "url": "http://hl7.org/fhir/R4/specimen.html",
                        "valueString": "Cervix"
                    },
                    {
                        "url": "http://hl7.org/fhir/R4/specimen-definitions.html#Specimen.collection.collected_x_",
                        "valueDateTime": "2022-07-20T13:58:00Z"
                    }
                ],
                "subject": {
                    "reference": "Patient/f81e8046-b4bc-f2fa-72b6-10f9a3ca1359"
                },
                "performer": [
                    {
                        "display": "VUMC CERNER LAB",
                        "reference": "Organization/e3ece69c-0968-59c9-47dd-f16db731621a"
                    }
                ]
            },
            "request": {
                "method": "PUT",
                "url": "Observation/ff803400-fce5-2cdf-ddf2-3e32b50f8b6f"
            }
        },
        {
            "fullUrl": "urn:uuid:e3ece69c-0968-59c9-47dd-f16db731621a",
            "resource": {
                "resourceType": "Organization",
                "id": "e3ece69c-0968-59c9-47dd-f16db731621a",
                "name": "VUMC CERNER LAB",
                "address": [
                    {
                        "line": [
                            "4605 TVC VUMC",
                            "1301 Medical Center Drive"
                        ],
                        "city": "NASHVILLE",
                        "state": "TN",
                        "postalCode": "37232-5310"
                    }
                ],
                "telecom": [
                    {
                        "system": "phone",
                        "value": "+1-615-875-5227"
                    }
                ]
            },
            "request": {
                "method": "PUT",
                "url": "Organization/e3ece69c-0968-59c9-47dd-f16db731621a"
            }
        },
        {
            "fullUrl": "urn:uuid:0ab0318f-996c-48f5-ac97-031dcc4ceb63",
            "resource": {
                "resourceType": "Observation",
                "id": "0ab0318f-996c-48f5-ac97-031dcc4ceb63",
                "meta": {
                    "profile": [
                        "http://hl7.org/fhir/us/core/StructureDefinition/us-core-observationresults"
                    ]
                },
                "identifier": [
                    {
                        "system": "urn:oid:1.2.840.114350.1.13.478.3.7.6.798268.2000",
                        "value": "2118096.2"
                    }
                ],
                "category": [
                    {
                        "coding": [
                            {
                                "system": "http://terminology.hl7.org/CodeSystem/observation-category",
                                "code": "laboratory"
                            }
                        ]
                    }
                ],
                "status": "final",
                "code": {
                    "coding": [
                        {
                            "code": "77399-4",
                            "display": "HPV Genotype 16 DNA (Result)",
                            "system": "http://loinc.org"
                        }
                    ]
                },
                "effectiveDateTime": "2022-07-20T14:12:18Z",
                "valueString": "Not Detected",
                "extension": [
                    {
                        "url": "http://hl7.org/fhir/R4/specimen.html",
                        "valueString": "Cervix"
                    },
                    {
                        "url": "http://hl7.org/fhir/R4/specimen-definitions.html#Specimen.collection.collected_x_",
                        "valueDateTime": "2022-07-20T13:58:00Z"
                    }
                ],
                "subject": {
                    "reference": "Patient/f81e8046-b4bc-f2fa-72b6-10f9a3ca1359"
                },
                "performer": [
                    {
                        "display": "VUMC CERNER LAB",
                        "reference": "Organization/e3ece69c-0968-59c9-47dd-f16db731621a"
                    }
                ]
            },
            "request": {
                "method": "PUT",
                "url": "Observation/0ab0318f-996c-48f5-ac97-031dcc4ceb63"
            }
        },
        {
            "fullUrl": "urn:uuid:1863c018-d142-29c1-2c97-1ef39472a14c",
            "resource": {
                "resourceType": "Observation",
                "id": "1863c018-d142-29c1-2c97-1ef39472a14c",
                "meta": {
                    "profile": [
                        "http://hl7.org/fhir/us/core/StructureDefinition/us-core-observationresults"
                    ]
                },
                "identifier": [
                    {
                        "system": "urn:oid:1.2.840.114350.1.13.478.3.7.6.798268.2000",
                        "value": "2118096.3"
                    }
                ],
                "category": [
                    {
                        "coding": [
                            {
                                "system": "http://terminology.hl7.org/CodeSystem/observation-category",
                                "code": "laboratory"
                            }
                        ]
                    }
                ],
                "status": "final",
                "code": {
                    "coding": [
                        {
                            "code": "77400-0",
                            "display": "HPV Genotype 18 DNA (Result)",
                            "system": "http://loinc.org"
                        }
                    ]
                },
                "effectiveDateTime": "2022-07-20T14:12:18Z",
                "valueString": "Detected",
                "interpretation": [
                    {
                        "coding": [
                            {
                                "code": "A",
                                "display": "Abnormal",
                                "system": "http://terminology.hl7.org/CodeSystem/v3-ObservationInterpretation"
                            }
                        ]
                    }
                ],
                "extension": [
                    {
                        "url": "http://hl7.org/fhir/R4/specimen.html",
                        "valueString": "Cervix"
                    },
                    {
                        "url": "http://hl7.org/fhir/R4/specimen-definitions.html#Specimen.collection.collected_x_",
                        "valueDateTime": "2022-07-20T13:58:00Z"
                    }
                ],
                "subject": {
                    "reference": "Patient/f81e8046-b4bc-f2fa-72b6-10f9a3ca1359"
                },
                "performer": [
                    {
                        "display": "VUMC CERNER LAB",
                        "reference": "Organization/e3ece69c-0968-59c9-47dd-f16db731621a"
                    }
                ]
            },
            "request": {
                "method": "PUT",
                "url": "Observation/1863c018-d142-29c1-2c97-1ef39472a14c"
            }
        },
        {
            "fullUrl": "urn:uuid:df1257f0-ecf8-4f9f-b5b0-c77d7bdf55ea",
            "resource": {
                "resourceType": "Observation",
                "id": "df1257f0-ecf8-4f9f-b5b0-c77d7bdf55ea",
                "meta": {
                    "profile": [
                        "http://hl7.org/fhir/us/core/StructureDefinition/us-core-observationresults"
                    ]
                },
                "identifier": [
                    {
                        "system": "urn:oid:1.2.840.114350.1.13.478.3.7.2.798268",
                        "value": "2118096"
                    }
                ],
                "category": [
                    {
                        "coding": [
                            {
                                "system": "http://terminology.hl7.org/CodeSystem/observation-category",
                                "code": "laboratory"
                            }
                        ]
                    }
                ],
                "status": "final",
                "code": {
                    "coding": [
                        {
                            "code": "56850-1",
                            "display": "Lab Interpretation",
                            "system": "http://loinc.org"
                        }
                    ]
                },
                "effectiveDateTime": "2022-07-20T14:12:18Z",
                "valueString": "Abnormal",
                "extension": [
                    {
                        "url": "http://hl7.org/fhir/R4/specimen.html",
                        "valueString": "Cervix"
                    },
                    {
                        "url": "http://hl7.org/fhir/R4/specimen-definitions.html#Specimen.collection.collected_x_",
                        "valueDateTime": "2022-07-20T13:58:00Z"
                    }
                ],
                "subject": {
                    "reference": "Patient/f81e8046-b4bc-f2fa-72b6-10f9a3ca1359"
                }
            },
            "request": {
                "method": "PUT",
                "url": "Observation/df1257f0-ecf8-4f9f-b5b0-c77d7bdf55ea"
            }
        },
        {
            "fullUrl": "urn:uuid:7ba26f71-7fe5-f059-1259-b4a2726611ed",
            "resource": {
                "resourceType": "DiagnosticReport",
                "id": "7ba26f71-7fe5-f059-1259-b4a2726611ed",
                "identifier": [
                    {
                        "system": "urn:oid:1.2.840.114350.1.13.478.3.7.2.798268",
                        "value": "2122771"
                    }
                ],
                "status": "final",
                "code": {
                    "coding": [
                        {
                            "display": "PCR CMV Qt",
                            "system": "http://loinc.org"
                        }
                    ]
                },
                "effectivePeriod": {
                    "start": "2022-08-05T16:26:00Z",
                    "end": "2022-08-05T16:26:00Z"
                },
                "subject": {
                    "reference": "Patient/f81e8046-b4bc-f2fa-72b6-10f9a3ca1359"
                },
                "performer": [
                    {
                        "reference": "Organization/22c6cdd0-bde1-e220-9ba4-2c2802f795ad"
                    }
                ],
                "result": [
                    {
                        "reference": "Observation/7056e695-901f-f98d-00f0-fb400ea4f4a0"
                    }
                ]
            },
            "request": {
                "method": "PUT",
                "url": "DiagnosticReport/7ba26f71-7fe5-f059-1259-b4a2726611ed"
            }
        },
        {
            "fullUrl": "urn:uuid:7056e695-901f-f98d-00f0-fb400ea4f4a0",
            "resource": {
                "resourceType": "Observation",
                "id": "7056e695-901f-f98d-00f0-fb400ea4f4a0",
                "meta": {
                    "profile": [
                        "http://hl7.org/fhir/us/core/StructureDefinition/us-core-observationresults"
                    ]
                },
                "identifier": [
                    {
                        "system": "urn:oid:1.2.840.114350.1.13.478.3.7.6.798268.2000",
                        "value": "2122771.1"
                    }
                ],
                "category": [
                    {
                        "coding": [
                            {
                                "system": "http://terminology.hl7.org/CodeSystem/observation-category",
                                "code": "laboratory"
                            }
                        ]
                    }
                ],
                "status": "final",
                "code": {
                    "coding": [
                        {
                            "code": "72493-0",
                            "display": "CMV Quant DNA (Quantitative)",
                            "system": "http://loinc.org"
                        }
                    ]
                },
                "effectiveDateTime": "2022-08-05T16:30:49Z",
                "valueQuantity": {
                    "value": 18880
                },
                "extension": [
                    {
                        "url": "http://hl7.org/fhir/R4/specimen.html",
                        "valueString": "Blood"
                    },
                    {
                        "url": "http://hl7.org/fhir/R4/specimen-definitions.html#Specimen.collection.collected_x_",
                        "valueDateTime": "2022-08-05T16:26:00Z"
                    }
                ],
                "subject": {
                    "reference": "Patient/f81e8046-b4bc-f2fa-72b6-10f9a3ca1359"
                },
                "performer": [
                    {
                        "display": "VUMC CERNER LAB",
                        "reference": "Organization/e3ece69c-0968-59c9-47dd-f16db731621a"
                    }
                ]
            },
            "request": {
                "method": "PUT",
                "url": "Observation/7056e695-901f-f98d-00f0-fb400ea4f4a0"
            }
        },
        {
            "fullUrl": "urn:uuid:4a96a75a-764d-63ff-6f8f-36639baf174d",
            "resource": {
                "resourceType": "DiagnosticReport",
                "id": "4a96a75a-764d-63ff-6f8f-36639baf174d",
                "identifier": [
                    {
                        "system": "urn:oid:1.2.840.114350.1.13.478.3.7.2.798268",
                        "value": "2122772"
                    }
                ],
                "status": "final",
                "code": {
                    "coding": [
                        {
                            "display": "PCR CMV Qt",
                            "system": "http://loinc.org"
                        }
                    ]
                },
                "effectivePeriod": {
                    "start": "2022-08-05T16:26:00Z",
                    "end": "2022-08-05T16:26:00Z"
                },
                "subject": {
                    "reference": "Patient/f81e8046-b4bc-f2fa-72b6-10f9a3ca1359"
                },
                "performer": [
                    {
                        "reference": "Organization/22c6cdd0-bde1-e220-9ba4-2c2802f795ad"
                    }
                ],
                "result": [
                    {
                        "reference": "Observation/369da706-fafe-0bb9-244f-8e6cf89813d0"
                    }
                ]
            },
            "request": {
                "method": "PUT",
                "url": "DiagnosticReport/4a96a75a-764d-63ff-6f8f-36639baf174d"
            }
        },
        {
            "fullUrl": "urn:uuid:369da706-fafe-0bb9-244f-8e6cf89813d0",
            "resource": {
                "resourceType": "Observation",
                "id": "369da706-fafe-0bb9-244f-8e6cf89813d0",
                "meta": {
                    "profile": [
                        "http://hl7.org/fhir/us/core/StructureDefinition/us-core-observationresults"
                    ]
                },
                "identifier": [
                    {
                        "system": "urn:oid:1.2.840.114350.1.13.478.3.7.6.798268.2000",
                        "value": "2122772.1"
                    }
                ],
                "category": [
                    {
                        "coding": [
                            {
                                "system": "http://terminology.hl7.org/CodeSystem/observation-category",
                                "code": "laboratory"
                            }
                        ]
                    }
                ],
                "status": "final",
                "code": {
                    "coding": [
                        {
                            "code": "72493-0",
                            "display": "CMV Quant DNA (Quantitative)",
                            "system": "http://loinc.org"
                        }
                    ]
                },
                "effectiveDateTime": "2022-08-05T16:33:57Z",
                "extension": [
                    {
                        "url": "http://hl7.org/fhir/R4/specimen.html",
                        "valueString": "Blood"
                    },
                    {
                        "url": "http://hl7.org/fhir/R4/specimen-definitions.html#Specimen.collection.collected_x_",
                        "valueDateTime": "2022-08-05T16:26:00Z"
                    }
                ],
                "subject": {
                    "reference": "Patient/f81e8046-b4bc-f2fa-72b6-10f9a3ca1359"
                },
                "performer": [
                    {
                        "display": "VUMC CERNER LAB",
                        "reference": "Organization/e3ece69c-0968-59c9-47dd-f16db731621a"
                    }
                ]
            },
            "request": {
                "method": "PUT",
                "url": "Observation/369da706-fafe-0bb9-244f-8e6cf89813d0"
            }
        },
        {
            "fullUrl": "urn:uuid:10285c26-835d-f7c3-1c5a-0fdf21a2ae81",
            "resource": {
                "resourceType": "DiagnosticReport",
                "id": "10285c26-835d-f7c3-1c5a-0fdf21a2ae81",
                "identifier": [
                    {
                        "system": "urn:oid:1.2.840.114350.1.13.478.3.7.2.798268",
                        "value": "2122773"
                    }
                ],
                "status": "final",
                "code": {
                    "coding": [
                        {
                            "display": "PCR CMV Qt",
                            "system": "http://loinc.org"
                        }
                    ]
                },
                "effectivePeriod": {
                    "start": "2022-08-05T16:26:00Z",
                    "end": "2022-08-05T16:26:00Z"
                },
                "subject": {
                    "reference": "Patient/f81e8046-b4bc-f2fa-72b6-10f9a3ca1359"
                },
                "performer": [
                    {
                        "reference": "Organization/22c6cdd0-bde1-e220-9ba4-2c2802f795ad"
                    }
                ],
                "result": [
                    {
                        "reference": "Observation/22ea6072-2cda-0902-9340-6c9d3f9549bc"
                    }
                ]
            },
            "request": {
                "method": "PUT",
                "url": "DiagnosticReport/10285c26-835d-f7c3-1c5a-0fdf21a2ae81"
            }
        },
        {
            "fullUrl": "urn:uuid:22ea6072-2cda-0902-9340-6c9d3f9549bc",
            "resource": {
                "resourceType": "Observation",
                "id": "22ea6072-2cda-0902-9340-6c9d3f9549bc",
                "meta": {
                    "profile": [
                        "http://hl7.org/fhir/us/core/StructureDefinition/us-core-observationresults"
                    ]
                },
                "identifier": [
                    {
                        "system": "urn:oid:1.2.840.114350.1.13.478.3.7.6.798268.2000",
                        "value": "2122773.1"
                    }
                ],
                "category": [
                    {
                        "coding": [
                            {
                                "system": "http://terminology.hl7.org/CodeSystem/observation-category",
                                "code": "laboratory"
                            }
                        ]
                    }
                ],
                "status": "final",
                "code": {
                    "coding": [
                        {
                            "code": "72493-0",
                            "display": "CMV Quant DNA (Quantitative)",
                            "system": "http://loinc.org"
                        }
                    ]
                },
                "effectiveDateTime": "2022-08-05T16:47:24Z",
                "valueString": "Target Not Detected",
                "extension": [
                    {
                        "url": "http://hl7.org/fhir/R4/specimen.html",
                        "valueString": "Blood"
                    },
                    {
                        "url": "http://hl7.org/fhir/R4/specimen-definitions.html#Specimen.collection.collected_x_",
                        "valueDateTime": "2022-08-05T16:26:00Z"
                    }
                ],
                "subject": {
                    "reference": "Patient/f81e8046-b4bc-f2fa-72b6-10f9a3ca1359"
                },
                "performer": [
                    {
                        "display": "VUMC CERNER LAB",
                        "reference": "Organization/e3ece69c-0968-59c9-47dd-f16db731621a"
                    }
                ]
            },
            "request": {
                "method": "PUT",
                "url": "Observation/22ea6072-2cda-0902-9340-6c9d3f9549bc"
            }
        },
        {
            "fullUrl": "urn:uuid:54778c9a-cc41-c799-b30c-d9546b7b1fea",
            "resource": {
                "resourceType": "DiagnosticReport",
                "id": "54778c9a-cc41-c799-b30c-d9546b7b1fea",
                "identifier": [
                    {
                        "system": "urn:oid:1.2.840.114350.1.13.478.3.7.2.798268",
                        "value": "2122774"
                    }
                ],
                "status": "final",
                "code": {
                    "coding": [
                        {
                            "display": "PCR SARS-CoV-2 and Influenza A/B",
                            "system": "http://loinc.org"
                        }
                    ]
                },
                "effectivePeriod": {
                    "start": "2022-08-05T16:26:00Z",
                    "end": "2022-08-05T16:26:00Z"
                },
                "subject": {
                    "reference": "Patient/f81e8046-b4bc-f2fa-72b6-10f9a3ca1359"
                },
                "performer": [
                    {
                        "reference": "Organization/22c6cdd0-bde1-e220-9ba4-2c2802f795ad"
                    }
                ],
                "result": [
                    {
                        "reference": "Observation/dc36481d-b76b-f1df-fddc-743c9dec21ac"
                    },
                    {
                        "reference": "Observation/85df5f22-7b04-c0e1-b2e2-4c9b36251fc7"
                    },
                    {
                        "reference": "Observation/e0e67e0e-1b27-45d1-ffaa-d1a80a10a292"
                    },
                    {
                        "reference": "Observation/75967878-899b-c449-bfe0-cfeb72bce400"
                    }
                ]
            },
            "request": {
                "method": "PUT",
                "url": "DiagnosticReport/54778c9a-cc41-c799-b30c-d9546b7b1fea"
            }
        },
        {
            "fullUrl": "urn:uuid:dc36481d-b76b-f1df-fddc-743c9dec21ac",
            "resource": {
                "resourceType": "Observation",
                "id": "dc36481d-b76b-f1df-fddc-743c9dec21ac",
                "meta": {
                    "profile": [
                        "http://hl7.org/fhir/us/core/StructureDefinition/us-core-observationresults"
                    ]
                },
                "identifier": [
                    {
                        "system": "urn:oid:1.2.840.114350.1.13.478.3.7.6.798268.2000",
                        "value": "2122774.1"
                    }
                ],
                "category": [
                    {
                        "coding": [
                            {
                                "system": "http://terminology.hl7.org/CodeSystem/observation-category",
                                "code": "laboratory"
                            }
                        ]
                    }
                ],
                "status": "final",
                "code": {
                    "coding": [
                        {
                            "code": "94533-7",
                            "display": "SARS-CoV-2 Nucleic Acid (Result)",
                            "system": "http://loinc.org"
                        }
                    ]
                },
                "effectiveDateTime": "2022-08-05T16:51:34Z",
                "valueString": "Detected",
                "interpretation": [
                    {
                        "coding": [
                            {
                                "code": "A",
                                "display": "Abnormal",
                                "system": "http://terminology.hl7.org/CodeSystem/v3-ObservationInterpretation"
                            }
                        ]
                    }
                ],
                "extension": [
                    {
                        "url": "http://hl7.org/fhir/R4/specimen.html",
                        "valueString": "Other"
                    },
                    {
                        "url": "http://hl7.org/fhir/R4/specimen-definitions.html#Specimen.collection.collected_x_",
                        "valueDateTime": "2022-08-05T16:26:00Z"
                    }
                ],
                "subject": {
                    "reference": "Patient/f81e8046-b4bc-f2fa-72b6-10f9a3ca1359"
                },
                "performer": [
                    {
                        "display": "VUMC CERNER LAB",
                        "reference": "Organization/e3ece69c-0968-59c9-47dd-f16db731621a"
                    }
                ]
            },
            "request": {
                "method": "PUT",
                "url": "Observation/dc36481d-b76b-f1df-fddc-743c9dec21ac"
            }
        },
        {
            "fullUrl": "urn:uuid:85df5f22-7b04-c0e1-b2e2-4c9b36251fc7",
            "resource": {
                "resourceType": "Observation",
                "id": "85df5f22-7b04-c0e1-b2e2-4c9b36251fc7",
                "meta": {
                    "profile": [
                        "http://hl7.org/fhir/us/core/StructureDefinition/us-core-observationresults"
                    ]
                },
                "identifier": [
                    {
                        "system": "urn:oid:1.2.840.114350.1.13.478.3.7.6.798268.2000",
                        "value": "2122774.2"
                    }
                ],
                "category": [
                    {
                        "coding": [
                            {
                                "system": "http://terminology.hl7.org/CodeSystem/observation-category",
                                "code": "laboratory"
                            }
                        ]
                    }
                ],
                "status": "final",
                "code": {
                    "coding": [
                        {
                            "code": "92142-9",
                            "display": "Influenza A PCR (Result)",
                            "system": "http://loinc.org"
                        }
                    ]
                },
                "effectiveDateTime": "2022-08-05T16:51:34Z",
                "valueString": "Not Detected",
                "extension": [
                    {
                        "url": "http://hl7.org/fhir/R4/specimen.html",
                        "valueString": "Other"
                    },
                    {
                        "url": "http://hl7.org/fhir/R4/specimen-definitions.html#Specimen.collection.collected_x_",
                        "valueDateTime": "2022-08-05T16:26:00Z"
                    }
                ],
                "subject": {
                    "reference": "Patient/f81e8046-b4bc-f2fa-72b6-10f9a3ca1359"
                },
                "performer": [
                    {
                        "display": "VUMC CERNER LAB",
                        "reference": "Organization/e3ece69c-0968-59c9-47dd-f16db731621a"
                    }
                ]
            },
            "request": {
                "method": "PUT",
                "url": "Observation/85df5f22-7b04-c0e1-b2e2-4c9b36251fc7"
            }
        },
        {
            "fullUrl": "urn:uuid:e0e67e0e-1b27-45d1-ffaa-d1a80a10a292",
            "resource": {
                "resourceType": "Observation",
                "id": "e0e67e0e-1b27-45d1-ffaa-d1a80a10a292",
                "meta": {
                    "profile": [
                        "http://hl7.org/fhir/us/core/StructureDefinition/us-core-observationresults"
                    ]
                },
                "identifier": [
                    {
                        "system": "urn:oid:1.2.840.114350.1.13.478.3.7.6.798268.2000",
                        "value": "2122774.3"
                    }
                ],
                "category": [
                    {
                        "coding": [
                            {
                                "system": "http://terminology.hl7.org/CodeSystem/observation-category",
                                "code": "laboratory"
                            }
                        ]
                    }
                ],
                "status": "final",
                "code": {
                    "coding": [
                        {
                            "code": "92141-1",
                            "display": "Influenza B PCR (Result)",
                            "system": "http://loinc.org"
                        }
                    ]
                },
                "effectiveDateTime": "2022-08-05T16:51:34Z",
                "valueString": "Not Detected",
                "extension": [
                    {
                        "url": "http://hl7.org/fhir/R4/specimen.html",
                        "valueString": "Other"
                    },
                    {
                        "url": "http://hl7.org/fhir/R4/specimen-definitions.html#Specimen.collection.collected_x_",
                        "valueDateTime": "2022-08-05T16:26:00Z"
                    }
                ],
                "subject": {
                    "reference": "Patient/f81e8046-b4bc-f2fa-72b6-10f9a3ca1359"
                },
                "performer": [
                    {
                        "display": "VUMC CERNER LAB",
                        "reference": "Organization/e3ece69c-0968-59c9-47dd-f16db731621a"
                    }
                ]
            },
            "request": {
                "method": "PUT",
                "url": "Observation/e0e67e0e-1b27-45d1-ffaa-d1a80a10a292"
            }
        },
        {
            "fullUrl": "urn:uuid:75967878-899b-c449-bfe0-cfeb72bce400",
            "resource": {
                "resourceType": "Observation",
                "id": "75967878-899b-c449-bfe0-cfeb72bce400",
                "meta": {
                    "profile": [
                        "http://hl7.org/fhir/us/core/StructureDefinition/us-core-observationresults"
                    ]
                },
                "identifier": [
                    {
                        "system": "urn:oid:1.2.840.114350.1.13.478.3.7.2.798268",
                        "value": "2122774"
                    }
                ],
                "category": [
                    {
                        "coding": [
                            {
                                "system": "http://terminology.hl7.org/CodeSystem/observation-category",
                                "code": "laboratory"
                            }
                        ]
                    }
                ],
                "status": "final",
                "code": {
                    "coding": [
                        {
                            "code": "56850-1",
                            "display": "Lab Interpretation",
                            "system": "http://loinc.org"
                        }
                    ]
                },
                "effectiveDateTime": "2022-08-05T16:51:34Z",
                "valueString": "Abnormal",
                "extension": [
                    {
                        "url": "http://hl7.org/fhir/R4/specimen.html",
                        "valueString": "Other"
                    },
                    {
                        "url": "http://hl7.org/fhir/R4/specimen-definitions.html#Specimen.collection.collected_x_",
                        "valueDateTime": "2022-08-05T16:26:00Z"
                    }
                ],
                "subject": {
                    "reference": "Patient/f81e8046-b4bc-f2fa-72b6-10f9a3ca1359"
                }
            },
            "request": {
                "method": "PUT",
                "url": "Observation/75967878-899b-c449-bfe0-cfeb72bce400"
            }
        },
        {
            "fullUrl": "urn:uuid:8aa934e8-8a9d-caa7-6abf-77d68994a7d0",
            "resource": {
                "resourceType": "DiagnosticReport",
                "id": "8aa934e8-8a9d-caa7-6abf-77d68994a7d0",
                "identifier": [
                    {
                        "system": "urn:oid:1.2.840.114350.1.13.478.3.7.2.798268",
                        "value": "2122775"
                    }
                ],
                "status": "final",
                "code": {
                    "coding": [
                        {
                            "display": "PCR SARS-CoV-2 and Influenza A/B",
                            "system": "http://loinc.org"
                        }
                    ]
                },
                "effectivePeriod": {
                    "start": "2022-08-05T18:10:00Z",
                    "end": "2022-08-05T18:10:00Z"
                },
                "subject": {
                    "reference": "Patient/f81e8046-b4bc-f2fa-72b6-10f9a3ca1359"
                },
                "performer": [
                    {
                        "reference": "Organization/22c6cdd0-bde1-e220-9ba4-2c2802f795ad"
                    }
                ],
                "result": [
                    {
                        "reference": "Observation/b933ea33-46fd-f2f0-1103-5f11eca4076c"
                    },
                    {
                        "reference": "Observation/b6ff4c67-41d5-447f-e6a3-64e23988cc07"
                    },
                    {
                        "reference": "Observation/6f60185f-e804-6a06-30f9-d3f64040062c"
                    },
                    {
                        "reference": "Observation/352f53cf-6661-8937-3177-970403bf4aca"
                    }
                ]
            },
            "request": {
                "method": "PUT",
                "url": "DiagnosticReport/8aa934e8-8a9d-caa7-6abf-77d68994a7d0"
            }
        },
        {
            "fullUrl": "urn:uuid:b933ea33-46fd-f2f0-1103-5f11eca4076c",
            "resource": {
                "resourceType": "Observation",
                "id": "b933ea33-46fd-f2f0-1103-5f11eca4076c",
                "meta": {
                    "profile": [
                        "http://hl7.org/fhir/us/core/StructureDefinition/us-core-observationresults"
                    ]
                },
                "identifier": [
                    {
                        "system": "urn:oid:1.2.840.114350.1.13.478.3.7.6.798268.2000",
                        "value": "2122775.1"
                    }
                ],
                "category": [
                    {
                        "coding": [
                            {
                                "system": "http://terminology.hl7.org/CodeSystem/observation-category",
                                "code": "laboratory"
                            }
                        ]
                    }
                ],
                "status": "final",
                "code": {
                    "coding": [
                        {
                            "code": "94533-7",
                            "display": "SARS-CoV-2 Nucleic Acid (Result)",
                            "system": "http://loinc.org"
                        }
                    ]
                },
                "effectiveDateTime": "2022-08-05T18:19:23Z",
                "valueString": "Detected",
                "interpretation": [
                    {
                        "coding": [
                            {
                                "code": "A",
                                "display": "Abnormal",
                                "system": "http://terminology.hl7.org/CodeSystem/v3-ObservationInterpretation"
                            }
                        ]
                    }
                ],
                "extension": [
                    {
                        "url": "http://hl7.org/fhir/R4/specimen.html",
                        "valueString": "Nasopharynx"
                    },
                    {
                        "url": "http://hl7.org/fhir/R4/specimen-definitions.html#Specimen.collection.collected_x_",
                        "valueDateTime": "2022-08-05T18:10:00Z"
                    }
                ],
                "subject": {
                    "reference": "Patient/f81e8046-b4bc-f2fa-72b6-10f9a3ca1359"
                },
                "performer": [
                    {
                        "display": "VUMC CERNER LAB",
                        "reference": "Organization/e3ece69c-0968-59c9-47dd-f16db731621a"
                    }
                ]
            },
            "request": {
                "method": "PUT",
                "url": "Observation/b933ea33-46fd-f2f0-1103-5f11eca4076c"
            }
        },
        {
            "fullUrl": "urn:uuid:b6ff4c67-41d5-447f-e6a3-64e23988cc07",
            "resource": {
                "resourceType": "Observation",
                "id": "b6ff4c67-41d5-447f-e6a3-64e23988cc07",
                "meta": {
                    "profile": [
                        "http://hl7.org/fhir/us/core/StructureDefinition/us-core-observationresults"
                    ]
                },
                "identifier": [
                    {
                        "system": "urn:oid:1.2.840.114350.1.13.478.3.7.6.798268.2000",
                        "value": "2122775.2"
                    }
                ],
                "category": [
                    {
                        "coding": [
                            {
                                "system": "http://terminology.hl7.org/CodeSystem/observation-category",
                                "code": "laboratory"
                            }
                        ]
                    }
                ],
                "status": "final",
                "code": {
                    "coding": [
                        {
                            "code": "92142-9",
                            "display": "Influenza A PCR (Result)",
                            "system": "http://loinc.org"
                        }
                    ]
                },
                "effectiveDateTime": "2022-08-05T18:19:23Z",
                "valueString": "Not Detected",
                "extension": [
                    {
                        "url": "http://hl7.org/fhir/R4/specimen.html",
                        "valueString": "Nasopharynx"
                    },
                    {
                        "url": "http://hl7.org/fhir/R4/specimen-definitions.html#Specimen.collection.collected_x_",
                        "valueDateTime": "2022-08-05T18:10:00Z"
                    }
                ],
                "subject": {
                    "reference": "Patient/f81e8046-b4bc-f2fa-72b6-10f9a3ca1359"
                },
                "performer": [
                    {
                        "display": "VUMC CERNER LAB",
                        "reference": "Organization/e3ece69c-0968-59c9-47dd-f16db731621a"
                    }
                ]
            },
            "request": {
                "method": "PUT",
                "url": "Observation/b6ff4c67-41d5-447f-e6a3-64e23988cc07"
            }
        },
        {
            "fullUrl": "urn:uuid:6f60185f-e804-6a06-30f9-d3f64040062c",
            "resource": {
                "resourceType": "Observation",
                "id": "6f60185f-e804-6a06-30f9-d3f64040062c",
                "meta": {
                    "profile": [
                        "http://hl7.org/fhir/us/core/StructureDefinition/us-core-observationresults"
                    ]
                },
                "identifier": [
                    {
                        "system": "urn:oid:1.2.840.114350.1.13.478.3.7.6.798268.2000",
                        "value": "2122775.3"
                    }
                ],
                "category": [
                    {
                        "coding": [
                            {
                                "system": "http://terminology.hl7.org/CodeSystem/observation-category",
                                "code": "laboratory"
                            }
                        ]
                    }
                ],
                "status": "final",
                "code": {
                    "coding": [
                        {
                            "code": "92141-1",
                            "display": "Influenza B PCR (Result)",
                            "system": "http://loinc.org"
                        }
                    ]
                },
                "effectiveDateTime": "2022-08-05T18:19:23Z",
                "valueString": "Not Detected",
                "extension": [
                    {
                        "url": "http://hl7.org/fhir/R4/specimen.html",
                        "valueString": "Nasopharynx"
                    },
                    {
                        "url": "http://hl7.org/fhir/R4/specimen-definitions.html#Specimen.collection.collected_x_",
                        "valueDateTime": "2022-08-05T18:10:00Z"
                    }
                ],
                "subject": {
                    "reference": "Patient/f81e8046-b4bc-f2fa-72b6-10f9a3ca1359"
                },
                "performer": [
                    {
                        "display": "VUMC CERNER LAB",
                        "reference": "Organization/e3ece69c-0968-59c9-47dd-f16db731621a"
                    }
                ]
            },
            "request": {
                "method": "PUT",
                "url": "Observation/6f60185f-e804-6a06-30f9-d3f64040062c"
            }
        },
        {
            "fullUrl": "urn:uuid:352f53cf-6661-8937-3177-970403bf4aca",
            "resource": {
                "resourceType": "Observation",
                "id": "352f53cf-6661-8937-3177-970403bf4aca",
                "meta": {
                    "profile": [
                        "http://hl7.org/fhir/us/core/StructureDefinition/us-core-observationresults"
                    ]
                },
                "identifier": [
                    {
                        "system": "urn:oid:1.2.840.114350.1.13.478.3.7.2.798268",
                        "value": "2122775"
                    }
                ],
                "category": [
                    {
                        "coding": [
                            {
                                "system": "http://terminology.hl7.org/CodeSystem/observation-category",
                                "code": "laboratory"
                            }
                        ]
                    }
                ],
                "status": "final",
                "code": {
                    "coding": [
                        {
                            "code": "56850-1",
                            "display": "Lab Interpretation",
                            "system": "http://loinc.org"
                        }
                    ]
                },
                "effectiveDateTime": "2022-08-05T18:19:23Z",
                "valueString": "Abnormal",
                "extension": [
                    {
                        "url": "http://hl7.org/fhir/R4/specimen.html",
                        "valueString": "Nasopharynx"
                    },
                    {
                        "url": "http://hl7.org/fhir/R4/specimen-definitions.html#Specimen.collection.collected_x_",
                        "valueDateTime": "2022-08-05T18:10:00Z"
                    }
                ],
                "subject": {
                    "reference": "Patient/f81e8046-b4bc-f2fa-72b6-10f9a3ca1359"
                }
            },
            "request": {
                "method": "PUT",
                "url": "Observation/352f53cf-6661-8937-3177-970403bf4aca"
            }
        },
        {
            "fullUrl": "urn:uuid:1599fa22-95b4-ed73-c966-f38e2d43ef45",
            "resource": {
                "resourceType": "DiagnosticReport",
                "id": "1599fa22-95b4-ed73-c966-f38e2d43ef45",
                "identifier": [
                    {
                        "system": "urn:oid:1.2.840.114350.1.13.478.3.7.2.798268",
                        "value": "2122776"
                    }
                ],
                "status": "final",
                "code": {
                    "coding": [
                        {
                            "display": "PCR SARS-CoV-2 and Influenza A/B",
                            "system": "http://loinc.org"
                        }
                    ]
                },
                "effectivePeriod": {
                    "start": "2022-08-05T18:10:00Z",
                    "end": "2022-08-05T18:10:00Z"
                },
                "subject": {
                    "reference": "Patient/f81e8046-b4bc-f2fa-72b6-10f9a3ca1359"
                },
                "performer": [
                    {
                        "reference": "Organization/22c6cdd0-bde1-e220-9ba4-2c2802f795ad"
                    }
                ],
                "result": [
                    {
                        "reference": "Observation/9c0b9043-b09e-49e9-5362-ebae4263c8db"
                    },
                    {
                        "reference": "Observation/531eee4e-6aab-8da4-2a6f-98c2548a64ef"
                    },
                    {
                        "reference": "Observation/a7c1bd02-c184-9969-a9cb-ca96bd5c479f"
                    },
                    {
                        "reference": "Observation/84f7885f-243c-d36b-6422-81a101657bda"
                    }
                ]
            },
            "request": {
                "method": "PUT",
                "url": "DiagnosticReport/1599fa22-95b4-ed73-c966-f38e2d43ef45"
            }
        },
        {
            "fullUrl": "urn:uuid:9c0b9043-b09e-49e9-5362-ebae4263c8db",
            "resource": {
                "resourceType": "Observation",
                "id": "9c0b9043-b09e-49e9-5362-ebae4263c8db",
                "meta": {
                    "profile": [
                        "http://hl7.org/fhir/us/core/StructureDefinition/us-core-observationresults"
                    ]
                },
                "identifier": [
                    {
                        "system": "urn:oid:1.2.840.114350.1.13.478.3.7.6.798268.2000",
                        "value": "2122776.1"
                    }
                ],
                "category": [
                    {
                        "coding": [
                            {
                                "system": "http://terminology.hl7.org/CodeSystem/observation-category",
                                "code": "laboratory"
                            }
                        ]
                    }
                ],
                "status": "final",
                "code": {
                    "coding": [
                        {
                            "code": "94533-7",
                            "display": "SARS-CoV-2 Nucleic Acid (Result)",
                            "system": "http://loinc.org"
                        }
                    ]
                },
                "effectiveDateTime": "2022-08-05T18:23:18Z",
                "valueString": "Not Detected",
                "extension": [
                    {
                        "url": "http://hl7.org/fhir/R4/specimen.html",
                        "valueString": "Nasopharynx"
                    },
                    {
                        "url": "http://hl7.org/fhir/R4/specimen-definitions.html#Specimen.collection.collected_x_",
                        "valueDateTime": "2022-08-05T18:10:00Z"
                    }
                ],
                "subject": {
                    "reference": "Patient/f81e8046-b4bc-f2fa-72b6-10f9a3ca1359"
                },
                "performer": [
                    {
                        "display": "VUMC CERNER LAB",
                        "reference": "Organization/e3ece69c-0968-59c9-47dd-f16db731621a"
                    }
                ]
            },
            "request": {
                "method": "PUT",
                "url": "Observation/9c0b9043-b09e-49e9-5362-ebae4263c8db"
            }
        },
        {
            "fullUrl": "urn:uuid:531eee4e-6aab-8da4-2a6f-98c2548a64ef",
            "resource": {
                "resourceType": "Observation",
                "id": "531eee4e-6aab-8da4-2a6f-98c2548a64ef",
                "meta": {
                    "profile": [
                        "http://hl7.org/fhir/us/core/StructureDefinition/us-core-observationresults"
                    ]
                },
                "identifier": [
                    {
                        "system": "urn:oid:1.2.840.114350.1.13.478.3.7.6.798268.2000",
                        "value": "2122776.2"
                    }
                ],
                "category": [
                    {
                        "coding": [
                            {
                                "system": "http://terminology.hl7.org/CodeSystem/observation-category",
                                "code": "laboratory"
                            }
                        ]
                    }
                ],
                "status": "final",
                "code": {
                    "coding": [
                        {
                            "code": "92142-9",
                            "display": "Influenza A PCR (Result)",
                            "system": "http://loinc.org"
                        }
                    ]
                },
                "effectiveDateTime": "2022-08-05T18:23:18Z",
                "valueString": "Detected",
                "interpretation": [
                    {
                        "coding": [
                            {
                                "code": "A",
                                "display": "Abnormal",
                                "system": "http://terminology.hl7.org/CodeSystem/v3-ObservationInterpretation"
                            }
                        ]
                    }
                ],
                "extension": [
                    {
                        "url": "http://hl7.org/fhir/R4/specimen.html",
                        "valueString": "Nasopharynx"
                    },
                    {
                        "url": "http://hl7.org/fhir/R4/specimen-definitions.html#Specimen.collection.collected_x_",
                        "valueDateTime": "2022-08-05T18:10:00Z"
                    }
                ],
                "subject": {
                    "reference": "Patient/f81e8046-b4bc-f2fa-72b6-10f9a3ca1359"
                },
                "performer": [
                    {
                        "display": "VUMC CERNER LAB",
                        "reference": "Organization/e3ece69c-0968-59c9-47dd-f16db731621a"
                    }
                ]
            },
            "request": {
                "method": "PUT",
                "url": "Observation/531eee4e-6aab-8da4-2a6f-98c2548a64ef"
            }
        },
        {
            "fullUrl": "urn:uuid:a7c1bd02-c184-9969-a9cb-ca96bd5c479f",
            "resource": {
                "resourceType": "Observation",
                "id": "a7c1bd02-c184-9969-a9cb-ca96bd5c479f",
                "meta": {
                    "profile": [
                        "http://hl7.org/fhir/us/core/StructureDefinition/us-core-observationresults"
                    ]
                },
                "identifier": [
                    {
                        "system": "urn:oid:1.2.840.114350.1.13.478.3.7.6.798268.2000",
                        "value": "2122776.3"
                    }
                ],
                "category": [
                    {
                        "coding": [
                            {
                                "system": "http://terminology.hl7.org/CodeSystem/observation-category",
                                "code": "laboratory"
                            }
                        ]
                    }
                ],
                "status": "final",
                "code": {
                    "coding": [
                        {
                            "code": "92141-1",
                            "display": "Influenza B PCR (Result)",
                            "system": "http://loinc.org"
                        }
                    ]
                },
                "effectiveDateTime": "2022-08-05T18:23:18Z",
                "valueString": "Not Detected",
                "extension": [
                    {
                        "url": "http://hl7.org/fhir/R4/specimen.html",
                        "valueString": "Nasopharynx"
                    },
                    {
                        "url": "http://hl7.org/fhir/R4/specimen-definitions.html#Specimen.collection.collected_x_",
                        "valueDateTime": "2022-08-05T18:10:00Z"
                    }
                ],
                "subject": {
                    "reference": "Patient/f81e8046-b4bc-f2fa-72b6-10f9a3ca1359"
                },
                "performer": [
                    {
                        "display": "VUMC CERNER LAB",
                        "reference": "Organization/e3ece69c-0968-59c9-47dd-f16db731621a"
                    }
                ]
            },
            "request": {
                "method": "PUT",
                "url": "Observation/a7c1bd02-c184-9969-a9cb-ca96bd5c479f"
            }
        },
        {
            "fullUrl": "urn:uuid:84f7885f-243c-d36b-6422-81a101657bda",
            "resource": {
                "resourceType": "Observation",
                "id": "84f7885f-243c-d36b-6422-81a101657bda",
                "meta": {
                    "profile": [
                        "http://hl7.org/fhir/us/core/StructureDefinition/us-core-observationresults"
                    ]
                },
                "identifier": [
                    {
                        "system": "urn:oid:1.2.840.114350.1.13.478.3.7.2.798268",
                        "value": "2122776"
                    }
                ],
                "category": [
                    {
                        "coding": [
                            {
                                "system": "http://terminology.hl7.org/CodeSystem/observation-category",
                                "code": "laboratory"
                            }
                        ]
                    }
                ],
                "status": "final",
                "code": {
                    "coding": [
                        {
                            "code": "56850-1",
                            "display": "Lab Interpretation",
                            "system": "http://loinc.org"
                        }
                    ]
                },
                "effectiveDateTime": "2022-08-05T18:23:18Z",
                "valueString": "Abnormal",
                "extension": [
                    {
                        "url": "http://hl7.org/fhir/R4/specimen.html",
                        "valueString": "Nasopharynx"
                    },
                    {
                        "url": "http://hl7.org/fhir/R4/specimen-definitions.html#Specimen.collection.collected_x_",
                        "valueDateTime": "2022-08-05T18:10:00Z"
                    }
                ],
                "subject": {
                    "reference": "Patient/f81e8046-b4bc-f2fa-72b6-10f9a3ca1359"
                }
            },
            "request": {
                "method": "PUT",
                "url": "Observation/84f7885f-243c-d36b-6422-81a101657bda"
            }
        },
        {
            "fullUrl": "urn:uuid:fea7a3cc-ec48-fa45-0629-e7c2f8c595bf",
            "resource": {
                "resourceType": "Observation",
                "id": "fea7a3cc-ec48-fa45-0629-e7c2f8c595bf",
                "meta": {
                    "profile": [
                        "http://hl7.org/fhir/us/core/StructureDefinition/us-core-observationresults"
                    ]
                },
                "identifier": [
                    {
                        "system": "urn:oid:1.2.840.114350.1.13.478.3.7.1.1040.1",
                        "value": "Z31828^^72166-2"
                    }
                ],
                "category": [
                    {
                        "coding": [
                            {
                                "system": "http://terminology.hl7.org/CodeSystem/observation-category",
                                "code": "social-history"
                            }
                        ]
                    }
                ],
                "status": "final",
                "code": {
                    "coding": [
                        {
                            "code": "72166-2",
                            "display": "Tobacco smoking status NHIS",
                            "system": "http://loinc.org"
                        }
                    ]
                },
                "valueCodeableConcept": {
                    "coding": [
                        {
                            "code": "266927001",
                            "display": "Tobacco smoking consumption unknown",
                            "system": "http://snomed.info/sct"
                        }
                    ]
                },
                "extension": [
                    {
                        "url": "http://hl7.org/fhir/R4/specimen-definitions.html#Specimen.collection.collected_x_",
                        "valueDateTime": "2022-08-05T18:10:00Z"
                    }
                ],
                "subject": {
                    "reference": "Patient/f81e8046-b4bc-f2fa-72b6-10f9a3ca1359"
                }
            },
            "request": {
                "method": "PUT",
                "url": "Observation/fea7a3cc-ec48-fa45-0629-e7c2f8c595bf"
            }
        },
        {
            "fullUrl": "urn:uuid:f5e25af7-945a-cf66-d2d0-8942935165a2",
            "resource": {
                "resourceType": "Immunization",
                "id": "f5e25af7-945a-cf66-d2d0-8942935165a2",
                "identifier": [
                    {
                        "system": "urn:oid:1.2.840.114350.1.13.478.3.7.2.768076",
                        "value": "86940"
                    }
                ],
                "occurrenceDateTime": "2021-01-22",
                "vaccineCode": {
                    "coding": [
                        {
                            "code": "80777-273-10",
                            "system": "urn:oid:2.16.840.1.113883.6.69"
                        }
                    ]
                },
                "status": "completed",
                "primarySource": true,
                "patient": {
                    "reference": "Patient/f81e8046-b4bc-f2fa-72b6-10f9a3ca1359"
                }
            },
            "request": {
                "method": "PUT",
                "url": "Immunization/f5e25af7-945a-cf66-d2d0-8942935165a2"
            }
        },
        {
            "fullUrl": "urn:uuid:d0f535da-78d7-4f76-9e60-456e827e1ca7",
            "resource": {
                "resourceType": "DocumentReference",
                "id": "d0f535da-78d7-4f76-9e60-456e827e1ca7",
                "type": {
                    "coding": [
                        {
                            "code": "55751-2",
                            "display": "Initial Public Health Case Report",
                            "system": "http://loinc.org"
                        }
                    ]
                },
                "date": "2023-04-14T03:43:34.53Z",
                "status": "current",
                "content": [
                    {
                        "attachment": {
                            "contentType": "text/plain",
                            "data": "",
                            "hash": "OTIzOTRhYmYxYjdiMmE5YjVlOGY1OWZmMWNlMzExN2Q1YWRiM2FhMA=="
                        }
                    }
                ]
            },
            "request": {
                "method": "PUT",
                "url": "DocumentReference/d0f535da-78d7-4f76-9e60-456e827e1ca7"
            }
        }
    ]
}