{
    "resourceType": "Bundle",
    "type": "batch",
    "entry": [
        {
            "fullUrl": "urn:uuid:040d5384-78da-bc55-a2bb-acaeedc875d3",
            "resource": {
                "resourceType": "Composition",
                "id": "040d5384-78da-bc55-a2bb-acaeedc875d3",
                "meta": {
                    "profile": [
                        "http://hl7.org/fhir/us/ecr/StructureDefinition/eicr-composition"
                    ]
                },
                "identifier": [
                    {
                        "use": "official",
                        "type": {
                            "coding": [
                                {
                                    "code": "55751-2",
                                    "display": "Public Health Case Report",
                                    "system": "http://loinc.org"
                                }
                            ]
                        },
                        "value": "cc22a5e6-d51a-11ec-81e1-8465ad080d41"
                    }
                ],
                "extension": [
                    {
                        "url": "http://hl7.org/fhir/StructureDefinition/composition-clinicaldocument-versionNumber",
                        "valueString": "46"
                    }
                ],
                "status": "final",
                "type": {
                    "coding": [
                        {
                            "code": "55751-2",
                            "display": "Public Health Case Report",
                            "system": "http://loinc.org"
                        }
                    ]
                },
                "date": "2022-05-16T09:19:00-04:00",
                "title": "Initial Public Health Case Report",
                "confidentiality": "N",
                "section": [
                    {
                        "id": "b34c64cc-c174-dc12-7e03-16d791cdfc05",
                        "title": "Care Teams",
                        "text": {
                            "status": "generated",
                            "div": "<div xmlns=\"http://www.w3.org/1999/xhtml\">Care Teams</div>"
                        },
                        "code": {
                            "coding": [
                                {
                                    "code": "85847-2",
                                    "display": "Care team",
                                    "system": "http://loinc.org"
                                }
                            ]
                        },
                        "mode": "snapshot"
                    },
                    {
                        "id": "19ee99ab-d348-2ce4-35b4-23fc371e7979",
                        "title": "Reason for Visit",
                        "text": {
                            "status": "generated",
                            "div": "<div xmlns=\"http://www.w3.org/1999/xhtml\">Reason for Visit</div>"
                        },
                        "code": {
                            "coding": [
                                {
                                    "code": "29299-5",
                                    "display": "Reason for Visit",
                                    "system": "http://loinc.org"
                                }
                            ]
                        },
                        "mode": "snapshot"
                    },
                    {
                        "id": "7b1d6abb-cea5-12c2-6f6b-83e0c1c01b06",
                        "title": "History of Present Illness",
                        "text": {
                            "status": "generated",
                            "div": "<div xmlns=\"http://www.w3.org/1999/xhtml\">History of Present Illness</div>"
                        },
                        "code": {
                            "coding": [
                                {
                                    "code": "10164-2",
                                    "display": "History Of Present Illness",
                                    "system": "http://loinc.org"
                                }
                            ]
                        },
                        "mode": "snapshot"
                    },
                    {
                        "id": "539681b7-ca12-2fb1-967c-2acdbe5bb443",
                        "title": "Social History",
                        "text": {
                            "status": "generated",
                            "div": "<div xmlns=\"http://www.w3.org/1999/xhtml\">Social History</div>"
                        },
                        "code": {
                            "coding": [
                                {
                                    "code": "29762-2",
                                    "display": "Social History",
                                    "system": "http://loinc.org"
                                }
                            ]
                        },
                        "mode": "snapshot"
                    },
                    {
                        "id": "3f99d9d7-fd85-32d6-f334-943fde1ec631",
                        "title": "Problems",
                        "text": {
                            "status": "generated",
                            "div": "<div xmlns=\"http://www.w3.org/1999/xhtml\">Problems</div>"
                        },
                        "code": {
                            "coding": [
                                {
                                    "code": "11450-4",
                                    "display": "PROBLEM LIST",
                                    "system": "http://loinc.org"
                                }
                            ]
                        },
                        "mode": "snapshot",
                        "entry": [
                            {
                                "display": "Problem - Infection due to severe acute respiratory syndrome coronavirus 2 (SARS-CoV-2)",
                                "reference": "Condition/b28b2cd8-3a2e-bbfd-28e3-2f200514c84d"
                            },
                            {
                                "display": "Problem - Anthrax",
                                "reference": "Condition/832e7f28-f74e-8543-4f61-87ccc1b379d3"
                            },
                            {
                                "display": "Problem - Measles",
                                "reference": "Condition/3daff259-1091-7380-0d09-878903fabed2"
                            }
                        ]
                    },
                    {
                        "id": "254a600e-a394-5673-eb77-f1ba6c2155e4",
                        "title": "Immunizations",
                        "text": {
                            "status": "generated",
                            "div": "<div xmlns=\"http://www.w3.org/1999/xhtml\">Immunizations</div>"
                        },
                        "code": {
                            "coding": [
                                {
                                    "code": "11369-6",
                                    "display": "History of immunizations",
                                    "system": "http://loinc.org"
                                }
                            ]
                        },
                        "mode": "snapshot"
                    },
                    {
                        "id": "b4dca430-0937-826b-5105-4c74964d84fe",
                        "title": "Procedures",
                        "text": {
                            "status": "generated",
                            "div": "<div xmlns=\"http://www.w3.org/1999/xhtml\">Procedures</div>"
                        },
                        "code": {
                            "coding": [
                                {
                                    "code": "47519-4",
                                    "display": "PROCEDURES",
                                    "system": "http://loinc.org"
                                }
                            ]
                        },
                        "mode": "snapshot"
                    },
                    {
                        "id": "cb100e34-732f-7121-cf3b-57d896f73289",
                        "title": "Relevant Diagnostic Tests and/or Laboratory Data",
                        "text": {
                            "status": "generated",
                            "div": "<div xmlns=\"http://www.w3.org/1999/xhtml\">Relevant Diagnostic Tests and/or Laboratory Data</div>"
                        },
                        "code": {
                            "coding": [
                                {
                                    "code": "30954-2",
                                    "display": "RELEVANT DIAGNOSTIC TESTS AND/OR LABORATORY DATA",
                                    "system": "http://loinc.org"
                                }
                            ]
                        },
                        "mode": "snapshot"
                    },
                    {
                        "id": "9ee15d5f-7a6b-3bcb-5fee-96e2f3b0200e",
                        "title": "Vital Signs",
                        "text": {
                            "status": "generated",
                            "div": "<div xmlns=\"http://www.w3.org/1999/xhtml\">Vital Signs</div>"
                        },
                        "code": {
                            "coding": [
                                {
                                    "code": "8716-3",
                                    "display": "VITAL SIGNS",
                                    "system": "http://loinc.org"
                                }
                            ]
                        },
                        "mode": "snapshot"
                    },
                    {
                        "id": "da89ca8b-0658-c748-895e-faad15d098b7",
                        "title": "Administered Medications",
                        "text": {
                            "status": "generated",
                            "div": "<div xmlns=\"http://www.w3.org/1999/xhtml\">Administered Medications</div>"
                        },
                        "code": {
                            "coding": [
                                {
                                    "code": "29549-3",
                                    "display": "MEDICATIONS ADMINISTERED",
                                    "system": "http://loinc.org"
                                }
                            ]
                        },
                        "mode": "snapshot"
                    },
                    {
                        "id": "6976e6bc-4764-7fc6-a714-e78f672a7110",
                        "title": "Encounters",
                        "text": {
                            "status": "generated",
                            "div": "<div xmlns=\"http://www.w3.org/1999/xhtml\">Encounters</div>"
                        },
                        "code": {
                            "coding": [
                                {
                                    "code": "46240-8",
                                    "display": "History of encounters",
                                    "system": "http://loinc.org"
                                }
                            ]
                        },
                        "mode": "snapshot"
                    },
                    {
                        "id": "135df885-b4a6-f836-0252-ed1a145d5966",
                        "title": "Assessments",
                        "text": {
                            "status": "generated",
                            "div": "<div xmlns=\"http://www.w3.org/1999/xhtml\">Assessments</div>"
                        },
                        "code": {
                            "coding": [
                                {
                                    "code": "51848-0",
                                    "display": "ASSESSMENTS",
                                    "system": "http://loinc.org"
                                }
                            ]
                        },
                        "mode": "snapshot"
                    },
                    {
                        "id": "6b6c3865-d46a-3825-83cf-39081fa12be9",
                        "title": "Plan of Treatment",
                        "text": {
                            "status": "generated",
                            "div": "<div xmlns=\"http://www.w3.org/1999/xhtml\">Plan of Treatment</div>"
                        },
                        "code": {
                            "coding": [
                                {
                                    "code": "18776-5",
                                    "display": "Treatment plan",
                                    "system": "http://loinc.org"
                                }
                            ]
                        },
                        "mode": "snapshot"
                    },
                    {
                        "id": "8623387b-3750-c825-6e4a-5531801731d2",
                        "title": "Reportability Response Information Section",
                        "text": {
                            "status": "generated",
                            "div": "<div xmlns=\"http://www.w3.org/1999/xhtml\">Reportability Response Information Section</div>"
                        },
                        "extension": [
                            {
                                "url": "http://hl7.org/fhir/us/ecr/StructureDefinition/rr-composition",
                                "valueIdentifier": {
                                    "use": "official",
                                    "type": {
                                        "coding": [
                                            {
                                                "code": "88085-6",
                                                "display": "Reportability response report Document Public health",
                                                "system": "http://loinc.org"
                                            }
                                        ]
                                    },
                                    "value": "030e9e15-1775-400e-a7e5-d0d6464b6919"
                                }
                            },
                            {
                                "url": "http://hl7.org/fhir/us/ecr/StructureDefinition/rr-eicr-processing-status-extension",
                                "valueCodeableConcept": {
                                    "coding": [
                                        {
                                            "code": "RRVS19",
                                            "display": "eICR processed",
                                            "system": "urn:oid:2.16.840.1.114222.4.5.274"
                                        }
                                    ]
                                }
                            }
                        ],
                        "code": {
                            "coding": [
                                {
                                    "code": "88085-6",
                                    "display": "Reportability response report Document Public health",
                                    "system": "http://loinc.org"
                                }
                            ]
                        },
                        "entry": [
                            {
                                "display": "Relevant Reportable Condition Observation - Measles (disorder)",
                                "reference": "Observation/beac1d2b-21b3-4fb8-a281-d68a33764722"
                            },
                            {
                                "display": "Relevant Reportable Condition Observation - Disease caused by severe acute respiratory syndrome coronavirus 2 (disorder)",
                                "reference": "Observation/69025b8d-0433-4b7b-ae8b-a5fbeec0aae7"
                            },
                            {
                                "display": "Relevant Reportable Condition Observation - Anthrax (disorder)",
                                "reference": "Observation/70e77f68-389f-40b1-a5a5-c19bb910537e"
                            }
                        ]
                    }
                ],
                "subject": {
                    "reference": "Patient/0a78c591-ae5a-a15e-ce45-c4a4a209204a"
                },
                "encounter": {
                    "reference": "Encounter/028024e4-0a63-eac0-8232-73fdfbc07f5d"
                },
                "custodian": {
                    "reference": "Organization/3dd0ab49-fb87-5165-5e2e-86d3fd09f39d"
                },
                "author": [
                    {
                        "reference": "Device/ab5d6bd5-5eeb-214c-0d3b-b8de1a8039d2"
                    }
                ]
            },
            "request": {
                "method": "PUT",
                "url": "Composition/040d5384-78da-bc55-a2bb-acaeedc875d3"
            }
        },
        {
            "fullUrl": "urn:uuid:028024e4-0a63-eac0-8232-73fdfbc07f5d",
            "resource": {
                "resourceType": "Encounter",
                "id": "028024e4-0a63-eac0-8232-73fdfbc07f5d",
                "status": "unknown",
                "class": {
                    "code": "IMP",
                    "display": "inpatient encounter",
                    "system": "urn:oid:2.16.840.1.113883.5.4"
                },
                "identifier": [
                    {
                        "system": "urn:ietf:rfc:3986",
                        "value": "urn:uuid:0c81f9ed-b1c7-11ec-81e0-9e7eef92c510"
                    },
                    {
                        "system": "urn:oid:1.3.6.1.4.1.24310",
                        "value": "0000016933"
                    }
                ],
                "period": {
                    "start": "2022-03-31T12:06:00-04:00"
                },
                "subject": {
                    "reference": "Patient/0a78c591-ae5a-a15e-ce45-c4a4a209204a"
                },
                "location": [
                    {
                        "id": "37192d1c-f526-5130-8219-6861a35f41e8",
                        "location": {
                            "reference": "Location/b732ff8a-cbe2-05db-660f-2c26c326e1ad",
                            "display": "Meditech Facility Author"
                        },
                        "extension": [
                            {
                                "url": "http://build.fhir.org/ig/HL7/case-reporting/StructureDefinition-us-ph-location-definitions.html#Location.type",
                                "valueCodeableConcept": {
                                    "coding": [
                                        {
                                            "code": "GIM",
                                            "display": "General internal medicine clinic",
                                            "system": "urn:oid:2.16.840.1.113883.5.111"
                                        }
                                    ]
                                }
                            }
                        ]
                    }
                ],
                "participant": [
                    {
                        "type": [
                            {
                                "coding": [
                                    {
                                        "system": "http://terminology.hl7.org/CodeSystem/v3-ParticipationType",
                                        "code": "ATND"
                                    }
                                ]
                            }
                        ],
                        "individual": {
                            "reference": "Practitioner/57e9273b-3cfb-d144-0f14-cdd3eb9bcff4"
                        }
                    }
                ]
            },
            "request": {
                "method": "PUT",
                "url": "Encounter/028024e4-0a63-eac0-8232-73fdfbc07f5d"
            }
        },
        {
            "fullUrl": "urn:uuid:b732ff8a-cbe2-05db-660f-2c26c326e1ad",
            "resource": {
                "resourceType": "Location",
                "id": "b732ff8a-cbe2-05db-660f-2c26c326e1ad",
                "identifier": [
                    {
                        "value": "37192d1c-f526-5130-8219-6861a35f41e8"
                    }
                ],
                "name": "Meditech Facility Author",
                "address": {
                    "use": "work",
                    "line": [
                        "1 Constitution Way"
                    ],
                    "city": "Foxboro",
                    "state": "MA",
                    "country": "USA",
                    "postalCode": "05158"
                },
                "telecom": [
                    {
                        "system": "phone",
                        "value": "+1(508)945-6522",
                        "use": "work"
                    }
                ],
                "type": [
                    {
                        "coding": [
                            {
                                "code": "GIM",
                                "display": "General internal medicine clinic",
                                "system": "urn:oid:2.16.840.1.113883.5.111"
                            }
                        ]
                    }
                ]
            },
            "request": {
                "method": "PUT",
                "url": "Location/b732ff8a-cbe2-05db-660f-2c26c326e1ad"
            }
        },
        {
            "fullUrl": "urn:uuid:57e9273b-3cfb-d144-0f14-cdd3eb9bcff4",
            "resource": {
                "resourceType": "Practitioner",
                "id": "57e9273b-3cfb-d144-0f14-cdd3eb9bcff4",
                "meta": {
                    "profile": [
                        "http://hl7.org/fhir/us/core/StructureDefinition/us-core-practitioner"
                    ]
                },
                "extension": [
                    {
                        "url": "http://hl7.org/fhir/StructureDefinition/_datatype",
                        "valueString": "Responsible Party"
                    }
                ],
                "identifier": [
                    {
                        "system": "http://hl7.org/fhir/sid/us-npi",
                        "value": "1259954778"
                    }
                ],
                "name": [
                    {
                        "use": "usual",
                        "text": "CANTON MEDICAL CENTER OF MASSACHUSETTS-North Canton Facilit"
                    }
                ],
                "address": [
                    {
                        "use": "work",
                        "line": [
                            "5001 North Mount Washington Circle Drive"
                        ],
                        "city": "North Canton",
                        "state": "MA",
                        "country": "USA",
                        "postalCode": "02740-0001"
                    }
                ],
                "telecom": [
                    {
                        "system": "phone",
                        "value": "+1(781)821-3001",
                        "use": "work"
                    }
                ]
            },
            "request": {
                "method": "PUT",
                "url": "Practitioner/57e9273b-3cfb-d144-0f14-cdd3eb9bcff4"
            }
        },
        {
            "fullUrl": "urn:uuid:beac1d2b-21b3-4fb8-a281-d68a33764722",
            "resource": {
                "resourceType": "Observation",
                "id": "beac1d2b-21b3-4fb8-a281-d68a33764722",
                "meta": {
                    "profile": [
                        "http://hl7.org/fhir/us/core/StructureDefinition/us-core-observationresults"
                    ]
                },
                "identifier": [
                    {
                        "system": "urn:ietf:rfc:3986",
                        "value": "urn:uuid:beac1d2b-21b3-4fb8-a281-d68a33764722"
                    }
                ],
                "status": "final",
                "code": {
                    "coding": [
                        {
                            "code": "64572001",
                            "display": "Condition",
                            "system": "http://snomed.info/sct"
                        },
                        {
                            "code": "75323-6",
                            "display": "Condition",
                            "system": "http://loinc.org"
                        }
                    ]
                },
                "valueCodeableConcept": {
                    "coding": [
                        {
                            "code": "14189004",
                            "display": "Measles (disorder)",
                            "system": "http://snomed.info/sct"
                        }
                    ]
                }
            },
            "request": {
                "method": "PUT",
                "url": "Observation/beac1d2b-21b3-4fb8-a281-d68a33764722"
            }
        },
        {
            "fullUrl": "urn:uuid:69025b8d-0433-4b7b-ae8b-a5fbeec0aae7",
            "resource": {
                "resourceType": "Observation",
                "id": "69025b8d-0433-4b7b-ae8b-a5fbeec0aae7",
                "meta": {
                    "profile": [
                        "http://hl7.org/fhir/us/core/StructureDefinition/us-core-observationresults"
                    ]
                },
                "identifier": [
                    {
                        "system": "urn:ietf:rfc:3986",
                        "value": "urn:uuid:69025b8d-0433-4b7b-ae8b-a5fbeec0aae7"
                    }
                ],
                "status": "final",
                "code": {
                    "coding": [
                        {
                            "code": "64572001",
                            "display": "Condition",
                            "system": "http://snomed.info/sct"
                        },
                        {
                            "code": "75323-6",
                            "display": "Condition",
                            "system": "http://loinc.org"
                        }
                    ]
                },
                "valueCodeableConcept": {
                    "coding": [
                        {
                            "code": "840539006",
                            "display": "Disease caused by severe acute respiratory syndrome coronavirus 2 (disorder)",
                            "system": "http://snomed.info/sct"
                        }
                    ]
                }
            },
            "request": {
                "method": "PUT",
                "url": "Observation/69025b8d-0433-4b7b-ae8b-a5fbeec0aae7"
            }
        },
        {
            "fullUrl": "urn:uuid:70e77f68-389f-40b1-a5a5-c19bb910537e",
            "resource": {
                "resourceType": "Observation",
                "id": "70e77f68-389f-40b1-a5a5-c19bb910537e",
                "meta": {
                    "profile": [
                        "http://hl7.org/fhir/us/core/StructureDefinition/us-core-observationresults"
                    ]
                },
                "identifier": [
                    {
                        "system": "urn:ietf:rfc:3986",
                        "value": "urn:uuid:70e77f68-389f-40b1-a5a5-c19bb910537e"
                    }
                ],
                "status": "final",
                "code": {
                    "coding": [
                        {
                            "code": "64572001",
                            "display": "Condition",
                            "system": "http://snomed.info/sct"
                        },
                        {
                            "code": "75323-6",
                            "display": "Condition",
                            "system": "http://loinc.org"
                        }
                    ]
                },
                "valueCodeableConcept": {
                    "coding": [
                        {
                            "code": "409498004",
                            "display": "Anthrax (disorder)",
                            "system": "http://snomed.info/sct"
                        }
                    ]
                }
            },
            "request": {
                "method": "PUT",
                "url": "Observation/70e77f68-389f-40b1-a5a5-c19bb910537e"
            }
        },
        {
            "fullUrl": "urn:uuid:3dd0ab49-fb87-5165-5e2e-86d3fd09f39d",
            "resource": {
                "resourceType": "Organization",
                "id": "3dd0ab49-fb87-5165-5e2e-86d3fd09f39d",
                "identifier": [
                    {
                        "system": "urn:ietf:rfc:3986",
                        "value": "urn:uuid:1.3.6.1.4.1.24310"
                    }
                ],
                "name": "Meditech Facility Author",
                "address": [
                    {
                        "use": "work",
                        "line": [
                            "101 Martine St"
                        ],
                        "city": "Fall River",
                        "state": "MA",
                        "country": "USA",
                        "postalCode": "05125"
                    },
                    {
                        "use": "work",
                        "line": [
                            "1 Constitution Way"
                        ],
                        "city": "Foxboro",
                        "state": "MA",
                        "country": "USA",
                        "postalCode": "05158"
                    }
                ],
                "telecom": [
                    {
                        "system": "phone",
                        "value": "+1(508)947-5477",
                        "use": "work"
                    },
                    {
                        "system": "phone",
                        "value": "+1(508)945-6522",
                        "use": "work"
                    }
                ]
            },
            "request": {
                "method": "PUT",
                "url": "Organization/3dd0ab49-fb87-5165-5e2e-86d3fd09f39d"
            }
        },
        {
            "fullUrl": "urn:uuid:ab5d6bd5-5eeb-214c-0d3b-b8de1a8039d2",
            "resource": {
                "resourceType": "Device",
                "id": "ab5d6bd5-5eeb-214c-0d3b-b8de1a8039d2",
                "identifier": [
                    {
                        "system": "urn:ietf:rfc:3986",
                        "value": "urn:uuid:1.3.6.1.4.1.24310"
                    }
                ],
                "type": {
                    "coding": [
                        {
                            "display": "MEDITECH - Testing Release T5.6.7.MIS Interface Device"
                        }
                    ]
                },
                "manufacturer": "MEDITECH - Testing Release T5.6.7.MIS Interface Device",
                "version": [
                    {
                        "value": "MEDITECH HCIS"
                    }
                ],
                "owner": {
                    "reference": "Organization/3dd0ab49-fb87-5165-5e2e-86d3fd09f39d"
                }
            },
            "request": {
                "method": "PUT",
                "url": "Device/ab5d6bd5-5eeb-214c-0d3b-b8de1a8039d2"
            }
        },
        {
            "fullUrl": "urn:uuid:0a78c591-ae5a-a15e-ce45-c4a4a209204a",
            "resource": {
                "resourceType": "Patient",
                "id": "0a78c591-ae5a-a15e-ce45-c4a4a209204a",
                "meta": {
                    "profile": [
                        "http://hl7.org/fhir/us/core/StructureDefinition/us-core-patient"
                    ]
                },
                "identifier": [
                    {
                        "system": "urn:oid:2.25.271342413802414176767384121859004435777",
                        "value": "0000008849"
                    },
                    {
                        "system": "urn:oid:2.25.271342413802414176767384121859004435777",
                        "value": "9282"
                    },
                    {
                        "system": "http://hl7.org/fhir/sid/us-ssn",
                        "value": "785-85-6895"
                    },
                    {
                        "system": "urn:oid:2.25.271342413802414176767384121859004435777",
                        "value": "3af0c293-ac74-11ec-81e0-9e7eef92c510"
                    }
                ],
                "name": [
                    {
                        "use": "official",
                        "family": "TEST",
                        "given": [
                            "CHARTIE7"
                        ]
                    }
                ],
                "birthDate": "1979-02-02",
                "gender": "female",
                "extension": [
                    {
                        "url": "http://hl7.org/fhir/us/core/StructureDefinition/us-core-race",
                        "extension": [
                            {
                                "url": "ombCategory",
                                "valueCoding": {
                                    "code": "2028-9",
                                    "display": "Asian"
                                }
                            },
                            {
                                "url": "detailed",
                                "valueCoding": {
                                    "code": "2108-9",
                                    "display": "European"
                                }
                            },
                            {
                                "url": "text",
                                "valueString": "Mixed"
                            }
                        ]
                    },
                    {
                        "url": "http://hl7.org/fhir/us/core/StructureDefinition/us-core-ethnicity",
                        "extension": [
                            {
                                "url": "ombCategory",
                                "valueCoding": {
                                    "system": "http://terminology.hl7.org/CodeSystem/v3-NullFlavor",
                                    "code": "UNK",
                                    "display": "Unknown"
                                }
                            },
                            {
                                "url": "ombCategory",
                                "valueCoding": {
                                    "system": "http://terminology.hl7.org/CodeSystem/v3-NullFlavor",
                                    "code": "UNK",
                                    "display": "Unknown"
                                }
                            },
                            {
                                "url": "text",
                                "valueString": "Mixed"
                            }
                        ]
                    }
                ],
                "address": [
                    {
                        "use": "home",
                        "line": [
                            "1"
                        ],
                        "city": "CITY",
                        "state": "CA",
                        "country": "US",
                        "postalCode": "90201"
                    }
                ],
                "telecom": [
                    {
                        "system": "phone",
                        "value": "+1(789)859-8594",
                        "use": "home"
                    }
                ],
                "communication": [
                    {
                        "language": {
                            "coding": [
                                {
                                    "system": "urn:ietf:bcp:47"
                                }
                            ]
                        },
                        "preferred": true
                    }
                ]
            },
            "request": {
                "method": "PUT",
                "url": "Patient/0a78c591-ae5a-a15e-ce45-c4a4a209204a"
            }
        },
        {
            "fullUrl": "urn:uuid:16397c4a-d5b8-4b82-a861-aa676e0f1592",
            "resource": {
                "resourceType": "Observation",
                "id": "16397c4a-d5b8-4b82-a861-aa676e0f1592",
                "meta": {
                    "profile": [
                        "http://hl7.org/fhir/us/core/StructureDefinition/us-core-observationresults"
                    ]
                },
                "identifier": [
                    {
                        "system": "urn:ietf:rfc:3986",
                        "value": "urn:uuid:4346ac13-9a08-4f00-aaa6-2f7041408ca1"
                    }
                ],
                "category": [
                    {
                        "coding": [
                            {
                                "system": "http://terminology.hl7.org/CodeSystem/observation-category",
                                "code": "social-history"
                            }
                        ]
                    }
                ],
                "status": "final",
                "code": {
                    "coding": [
                        {
                            "code": "72166-2",
                            "display": "Tobacco smoking status NHIS",
                            "system": "http://loinc.org"
                        }
                    ]
                },
                "valueCodeableConcept": {
                    "coding": [
                        {
                            "code": "266927001",
                            "display": "Unknown if ever smoked",
                            "system": "http://snomed.info/sct"
                        }
                    ]
                },
                "subject": {
                    "reference": "Patient/0a78c591-ae5a-a15e-ce45-c4a4a209204a"
                }
            },
            "request": {
                "method": "PUT",
                "url": "Observation/16397c4a-d5b8-4b82-a861-aa676e0f1592"
            }
        },
        {
            "fullUrl": "urn:uuid:66a2cb9c-1110-407a-49fa-01fc2938a6be",
            "resource": {
                "resourceType": "Observation",
                "id": "66a2cb9c-1110-407a-49fa-01fc2938a6be",
                "meta": {
                    "profile": [
                        "http://hl7.org/fhir/us/core/StructureDefinition/us-core-observationresults"
                    ]
                },
                "identifier": [
                    {
                        "system": "urn:ietf:rfc:3986",
                        "value": "urn:uuid:960abb3e-b6ce-4f45-a13b-99b18280acdd"
                    }
                ],
                "category": [
                    {
                        "coding": [
                            {
                                "system": "http://terminology.hl7.org/CodeSystem/observation-category",
                                "code": "social-history"
                            }
                        ]
                    }
                ],
                "status": "final",
                "code": {
                    "coding": [
                        {
                            "code": "76689-9",
                            "display": "Sex Assigned At Birth",
                            "system": "http://loinc.org"
                        }
                    ]
                },
                "effectiveDateTime": "1979-02-02",
                "valueCodeableConcept": {
                    "coding": [
                        {
                            "code": "F",
                            "display": "Female",
                            "system": "urn:oid:2.16.840.1.113883.5.1"
                        }
                    ]
                },
                "subject": {
                    "reference": "Patient/0a78c591-ae5a-a15e-ce45-c4a4a209204a"
                }
            },
            "request": {
                "method": "PUT",
                "url": "Observation/66a2cb9c-1110-407a-49fa-01fc2938a6be"
            }
        },
        {
            "fullUrl": "urn:uuid:66b02ab1-f831-76ee-1c33-f4ba692f9b23",
            "resource": {
                "resourceType": "DocumentReference",
                "id": "66b02ab1-f831-76ee-1c33-f4ba692f9b23",
                "type": {
                    "coding": [
                        {
                            "code": "55751-2",
                            "display": "Public Health Case Report",
                            "system": "http://loinc.org"
                        }
                    ]
                },
                "date": "2023-04-13T23:49:06.966Z",
                "status": "current",
                "content": [
                    {
                        "attachment": {
                            "contentType": "text/plain",
                            "data": "",
                            "hash": "NjYzZjBlYzlmNmNmM2NjMzZlYjU0ZWNlZjcwM2Q1YWUxNGIzNDZiNg=="
                        }
                    }
                ]
            },
            "request": {
                "method": "PUT",
                "url": "DocumentReference/66b02ab1-f831-76ee-1c33-f4ba692f9b23"
            }
        }
    ]
}