{
  "resourceType": "Bundle",
  "type": "batch",
  "entry": [
    {
      "fullUrl": "urn:uuid:cf9e1db8-fcc5-4cbc-96cd-043d3fd65bac",
      "resource": {
        "resourceType": "Composition",
        "id": "cf9e1db8-fcc5-4cbc-96cd-043d3fd65bac",
        "meta": {
          "profile": [
            "http://hl7.org/fhir/us/ecr/StructureDefinition/eicr-composition"
          ],
          "source": [
            "ecr"
          ]
        },
        "identifier": [
          {
            "use": "official",
            "type": {
              "coding": [
                {
                  "code": "55751-2",
                  "display": "Initial Public Health Case Report",
                  "system": "http://loinc.org"
                }
              ]
            },
            "value": "32943241|64979134"
          }
        ],
        "extension": [
          {
            "url": "http://hl7.org/fhir/StructureDefinition/composition-clinicaldocument-versionNumber",
            "valueString": "2"
          }
        ],
        "status": "final",
        "type": {
          "coding": [
            {
              "code": "55751-2",
              "display": "Initial Public Health Case Report",
              "system": "http://loinc.org"
            }
          ]
        },
        "date": "2022-04-30T16:55:43Z",
        "title": "Initial Public Health Case Report",
        "confidentiality": "N",
        "section": [
          {
            "id": "4830b790-114f-0e08-8f3b-f30cfac2e55c",
            "title": "PROBLEMS - DIAGNOSES",
            "text": {
              "status": "generated",
              "div": "<div xmlns=\"http://www.w3.org/1999/xhtml\">PROBLEMS - DIAGNOSES</div>"
            },
            "code": {
              "coding": [
                {
                  "code": "11450-4",
                  "display": "PROBLEM LIST",
                  "system": "http://loinc.org"
                }
              ]
            },
            "mode": "snapshot",
            "entry": [
              {
                "display": "Problem - Disease caused by 2019-nCoV",
                "reference": "Condition/16f2564a-4ec6-51c1-289f-5959f6195280"
              },
              {
                "reference": "Condition/f995e5bf-8020-29da-f4f8-e24a6fb2b2ce"
              },
              {
                "display": "Problem - Abdominal pain (finding)",
                "reference": "Condition/3a182166-80ff-ea13-218f-222c47ffc273"
              },
              {
                "display": "Problem - Abdominal pain (finding)",
                "reference": "Condition/9f6fdcd2-64b8-0f98-a514-e4c69c6dd9dd"
              },
              {
                "display": "Problem - Patient encounter status (finding)",
                "reference": "Condition/6b97db33-028c-11ee-e21f-c7c8f981ee8b"
              },
              {
                "display": "Problem - Patient encounter status (finding)",
                "reference": "Condition/cda0469a-5d9c-5d4b-b11f-2d274dd43c5d"
              },
              {
                "display": "Problem - Lupus erythematosus (disorder)",
                "reference": "Condition/55acff95-2bb9-0956-c4ed-afc03da03183"
              },
              {
                "display": "Problem - Abdominal pain (finding)",
                "reference": "Condition/05171024-c8f3-284e-29dd-0b846ccdfe2d"
              },
              {
                "display": "Problem - Lupus erythematosus (disorder)",
                "reference": "Condition/62e84bce-3a17-8ccf-63ac-eec6b2665001"
              },
              {
                "display": "Problem - Malaise (finding)",
                "reference": "Condition/e96976c0-5903-692c-a941-3d128122ae8f"
              },
              {
                "display": "Problem - Low back pain (disorder)",
                "reference": "Condition/f60de254-ad96-9823-33bb-0277afd7a21e"
              }
            ]
          },
          {
            "id": "754bca9b-a59a-ef5a-dd7c-2dcd1b749ca0",
            "title": "ENCOUNTERS",
            "text": {
              "status": "generated",
              "div": "<div xmlns=\"http://www.w3.org/1999/xhtml\">ENCOUNTERS</div>"
            },
            "code": {
              "coding": [
                {
                  "code": "46240-8",
                  "display": "History of Encounters",
                  "system": "http://loinc.org"
                }
              ]
            },
            "mode": "snapshot"
          },
          {
            "id": "c21cfcc1-2850-1194-842e-6b285e52ad99",
            "title": "RESULTS",
            "text": {
              "status": "generated",
              "div": "<div xmlns=\"http://www.w3.org/1999/xhtml\">RESULTS</div>"
            },
            "code": {
              "coding": [
                {
                  "code": "30954-2",
                  "display": "RESULTS",
                  "system": "http://loinc.org"
                }
              ]
            },
            "mode": "snapshot",
            "entry": [
              {
                "reference": "Observation/c0cc3598-5880-fb01-bddd-be20af7771e8"
              },
              {
                "reference": "Observation/9d965aa1-5234-157f-8529-4833985df7f7"
              },
              {
                "reference": "Observation/273d718d-e072-ed1c-df47-4729b142348f"
              },
              {
                "reference": "Observation/19d97a5d-daf3-f247-a9a9-037bef0d8364"
              },
              {
                "reference": "Observation/04cf1d63-90d6-30f8-e52a-5933a2bd858a"
              },
              {
                "reference": "Observation/c40af3d4-d2dc-8c1d-5880-7ff38dfecaf4"
              },
              {
                "reference": "Observation/2eb37bef-754f-6f02-8765-125055578e4e"
              },
              {
                "reference": "Observation/edc5baa1-3f57-e3f0-1592-f373952e7aa5"
              },
              {
                "reference": "Observation/5c083cac-4d5e-c267-613e-4b503c16f1c4"
              },
              {
                "reference": "Observation/657dbf49-244b-680a-37ff-2b596d83815d"
              },
              {
                "reference": "Observation/bd571d99-6e01-de30-8423-b2aaf161c5c0"
              },
              {
                "reference": "Observation/94a346ae-1e0c-334f-b817-b91367d28803"
              },
              {
                "reference": "Observation/c41559d0-beb5-512d-589b-d59a2e4f6d59"
              },
              {
                "reference": "Observation/4eca3dd5-765e-3203-9bcb-5a7d0c36acd8"
              },
              {
                "reference": "Observation/27496d26-ea37-6f8a-6b94-49d7b3b76f93"
              },
              {
                "reference": "Observation/9e9da6c8-1353-16d9-537a-64d64fa66569"
              },
              {
                "reference": "Observation/dc958589-11ea-a231-4394-24e9e79c4423"
              },
              {
                "reference": "Observation/61a2c2cd-b4b9-c55f-475b-3fe9bf941ff2"
              },
              {
                "reference": "Observation/d0012c42-a58d-ea15-143a-4f61999754de"
              },
              {
                "reference": "Observation/02b419b6-867d-f477-34f0-40e50bc4da63"
              },
              {
                "reference": "Observation/9128e596-d61b-cf36-9969-40d8c0831a79"
              },
              {
                "reference": "Observation/93568214-3d75-3338-f6d0-373f13c5a4bd"
              },
              {
                "reference": "Observation/1f70ffb7-c091-018e-9d41-5812e900af02"
              },
              {
                "reference": "Observation/48b9c8ee-0daa-2d3c-1a42-ae8a14bda7ef"
              },
              {
                "reference": "Observation/cf261377-aff1-e12c-e94e-0b613ff43965"
              },
              {
                "reference": "Observation/c0615b66-8027-49a6-9166-2061028b5e07"
              },
              {
                "reference": "Observation/a280d559-d10e-2411-60fb-5b36ff5ec97e"
              },
              {
                "reference": "Observation/ce871873-5968-fbe4-5ee6-d9bfbd12eec7"
              },
              {
                "reference": "Observation/f01c4359-8647-51fb-08d9-78e9909f464e"
              },
              {
                "reference": "Observation/c58b0595-6769-ddc4-d1ee-d2d12834dca9"
              },
              {
                "reference": "Observation/2fe3e216-98bb-3227-1de5-abeff5203e35"
              },
              {
                "reference": "Observation/ab744bd8-ac34-dcd1-70ea-59779356cc89"
              },
              {
                "reference": "Observation/85282dfe-f52b-62dc-2503-a3eaeb039b5b"
              },
              {
                "reference": "Observation/25d49e19-28ec-ac57-ac3f-849f39d64baa"
              },
              {
                "reference": "Observation/e67ca738-8c77-25a5-c9cc-6e291c989089"
              },
              {
                "reference": "Observation/7a77d2a2-f27b-cb00-4957-3b1069335a07"
              },
              {
                "reference": "Observation/0c569b39-48fd-f743-cd94-3fc38ef5bc52"
              },
              {
                "reference": "Observation/c7201ac1-f376-0b19-d3ee-bd24e37d9767"
              },
              {
                "reference": "Observation/44edfdf3-6a25-21eb-bcbb-2e49db12cb1e"
              },
              {
                "reference": "Observation/6f163e9c-422b-9b4d-0d21-d5eb704c5424"
              },
              {
                "reference": "Observation/097acd41-c400-927c-548f-70e7c94ea1a6"
              },
              {
                "reference": "Observation/0bd6416c-2cd5-54b3-fd1f-430d133614cc"
              },
              {
                "reference": "Observation/23e6b81b-9d18-6113-1a3d-c190499b5eae"
              },
              {
                "reference": "Observation/00992f2b-b0f4-f2bc-b51b-b1094cf6d208"
              },
              {
                "reference": "Observation/27da57ee-8d65-bbca-aa71-222f16e3d222"
              },
              {
                "reference": "Observation/8f0e9015-e28d-c36e-3f61-ed64bf515634"
              },
              {
                "reference": "Observation/2b802bc7-24f4-8df3-e184-e2adfe1f532b"
              },
              {
                "reference": "Observation/12282b68-fe1f-9f1a-e0b1-3c2f5d5bdb78"
              },
              {
                "reference": "Observation/7a6b8b43-f73a-2011-220c-18a359055a15"
              },
              {
                "reference": "Observation/8fd02067-f0b1-46ea-d394-ee66fd72514a"
              },
              {
                "reference": "Observation/fdb3509e-db88-3232-ba2d-d70e6340a2e8"
              },
              {
                "reference": "Observation/aa838a6e-c564-d6df-21b8-ca8e567ecce6"
              },
              {
                "reference": "Observation/2bca8b00-b5ac-6900-fe28-635bf5f0974a"
              },
              {
                "reference": "Observation/2f952f74-6d12-1deb-2393-d2d7fba77f2a"
              },
              {
                "reference": "Observation/62793ca4-9aaf-8a75-2732-0ed3cac94491"
              },
              {
                "reference": "Observation/715f21b6-308e-0b63-0433-8ed0f69e3e7a"
              },
              {
                "reference": "Observation/bc6add5f-8906-87be-efad-fe7c26e5c511"
              },
              {
                "reference": "Observation/a7c13226-2547-f0bd-79ea-0be4320a51c5"
              },
              {
                "reference": "Observation/41b0400c-862e-c9ee-67c6-983f3cfd964f"
              },
              {
                "reference": "Observation/beb7ccd8-9f0e-ba7d-84c5-a651cd44d9f2"
              },
              {
                "reference": "Observation/b7081edc-8ee8-40c8-38d7-561599d05939"
              },
              {
                "reference": "Observation/0ae0a811-d3d7-e016-a19b-6f8439a9a356"
              },
              {
                "reference": "Observation/ebfabe54-9b80-50f7-6367-84c72983d676"
              },
              {
                "reference": "Observation/aead0f9e-23b8-edbe-2003-a34bacda273c"
              },
              {
                "reference": "Observation/dbcf1a4e-9170-ae01-a0ef-c8e92869f391"
              },
              {
                "reference": "Observation/598db24d-ec9b-b527-a97f-bfe1f5383767"
              },
              {
                "reference": "Observation/fc20ae8b-96e5-43a7-aca0-1dedf7c40280"
              },
              {
                "reference": "Observation/be81faff-4836-3be8-1a6b-6b04f6619346"
              },
              {
                "reference": "Observation/667bb0e8-8fc6-4c88-5f31-580eef4cb6fb"
              },
              {
                "reference": "Observation/3fcbcbae-f7f4-d71d-f565-8a3f8dff4b91"
              },
              {
                "reference": "Observation/4974a1cf-e432-bc5c-2b18-bf8063a67ee3"
              },
              {
                "reference": "Observation/2e6a985d-ac92-9ec9-d5f0-5a1206b361ae"
              },
              {
                "reference": "Observation/b2b9c235-fffa-693b-ad6a-2ed97ca08fa3"
              },
              {
                "reference": "Observation/98c6194c-3691-a2d4-745a-f3d8b5a19c86"
              },
              {
                "reference": "Observation/a16f6f50-16a7-1d5f-a2c2-eba9e91012ce"
              },
              {
                "reference": "Observation/01920e8c-c852-a939-48e4-5a53be099566"
              },
              {
                "reference": "Observation/14b1db3c-983b-13b3-c56a-cbf7f926ec35"
              }
            ]
          },
          {
            "id": "36583a63-dfcd-7388-88d4-873cc3872f08",
            "title": "Medications Administered",
            "text": {
              "status": "generated",
              "div": "<div xmlns=\"http://www.w3.org/1999/xhtml\">Medications Administered</div>"
            },
            "code": {
              "coding": [
                {
                  "code": "29549-3",
                  "display": "Medications Administered",
                  "system": "http://loinc.org"
                }
              ]
            },
            "mode": "snapshot"
          },
          {
            "id": "dd08df91-869b-46df-dd36-c5c0f2ad2eae",
            "title": "IMMUNIZATIONS",
            "text": {
              "status": "generated",
              "div": "<div xmlns=\"http://www.w3.org/1999/xhtml\">IMMUNIZATIONS</div>"
            },
            "code": {
              "coding": [
                {
                  "code": "11369-6",
                  "display": "History of immunizations",
                  "system": "http://loinc.org"
                }
              ]
            },
            "mode": "snapshot"
          },
          {
            "id": "946ec7ff-8f6e-41b4-8609-dc72d0dd97a6",
            "title": "SOCIAL HISTORY",
            "text": {
              "status": "generated",
              "div": "<div xmlns=\"http://www.w3.org/1999/xhtml\">SOCIAL HISTORY</div>"
            },
            "code": {
              "coding": [
                {
                  "code": "29762-2",
                  "display": "Social History",
                  "system": "http://loinc.org"
                }
              ]
            },
            "mode": "snapshot"
          },
          {
            "id": "7dbd51e8-1c15-8cfa-cbce-f6f4b9a1ed5d",
            "title": "Plan of Treatment",
            "text": {
              "status": "generated",
              "div": "<div xmlns=\"http://www.w3.org/1999/xhtml\">Plan of Treatment</div>"
            },
            "code": {
              "coding": [
                {
                  "code": "18776-5",
                  "display": "Treatment Plan",
                  "system": "http://loinc.org"
                }
              ]
            },
            "mode": "snapshot"
          },
          {
            "id": "35ea10af-dd39-40cf-113d-22418b1902a7",
            "title": "History of Present Illness",
            "text": {
              "status": "generated",
              "div": "<div xmlns=\"http://www.w3.org/1999/xhtml\">History of Present Illness</div>"
            },
            "code": {
              "coding": [
                {
                  "code": "10164-2",
                  "display": "History of Present Illness",
                  "system": "http://loinc.org"
                }
              ]
            },
            "mode": "snapshot"
          },
          {
            "id": "1d6b8d13-b182-2153-661c-65533f2caa82",
            "title": "Reason For Visit",
            "text": {
              "status": "generated",
              "div": "<div xmlns=\"http://www.w3.org/1999/xhtml\">Reason For Visit</div>"
            },
            "code": {
              "coding": [
                {
                  "code": "29299-5",
                  "display": "Reason For Visit",
                  "system": "http://loinc.org"
                }
              ]
            },
            "mode": "snapshot"
          },
          {
            "id": "c705cd57-3d58-4001-33d0-5063dd68bd54",
            "title": "Reportability Response Information Section",
            "text": {
              "status": "generated",
              "div": "<div xmlns=\"http://www.w3.org/1999/xhtml\">Reportability Response Information Section</div>"
            },
            "extension": [
              {
                "url": "http://hl7.org/fhir/us/ecr/StructureDefinition/rr-composition",
                "valueIdentifier": {
                  "use": "official",
                  "type": {
                    "coding": [
                      {
                        "code": "88085-6",
                        "display": "Reportability response report Document Public health",
                        "system": "http://loinc.org"
                      }
                    ]
                  },
                  "value": "2a424582-82e6-4273-8e67-074d820baf05"
                }
              },
              {
                "url": "http://hl7.org/fhir/us/ecr/StructureDefinition/rr-eicr-processing-status-extension",
                "valueCodeableConcept": {
                  "coding": [
                    {
                      "code": "RRVS19",
                      "display": "eICR processed",
                      "system": "urn:oid:2.16.840.1.114222.4.5.274"
                    }
                  ]
                }
              }
            ],
            "code": {
              "coding": [
                {
                  "code": "88085-6",
                  "display": "Reportability response report Document Public health",
                  "system": "http://loinc.org"
                }
              ]
            },
            "entry": [
              {
                "display": "Relevant Reportable Condition Observation - Disease caused by severe acute respiratory syndrome coronavirus 2 (disorder)",
                "reference": "Observation/6a66c193-39d9-4e1c-a00b-48e967fea0cb"
              }
            ]
          }
        ],
        "subject": {
          "reference": "Patient/2dde8c35-e57c-4f3e-a77c-39e144e9deda"
        },
        "encounter": {
          "reference": "Encounter/bd69e04f-3928-5131-0ec7-3581aece8c37"
        },
        "custodian": {
          "reference": "Organization/91c4d2ba-e324-5b1a-a4cb-84d9690511d3"
        },
        "author": [
          {
            "reference": "Practitioner/79842b6e-724b-8d57-dd2a-8d4b915f0558"
          }
        ]
      },
      "request": {
        "method": "PUT",
        "url": "Composition/cf9e1db8-fcc5-4cbc-96cd-043d3fd65bac"
      }
    },
    {
      "fullUrl": "urn:uuid:bd69e04f-3928-5131-0ec7-3581aece8c37",
      "resource": {
        "resourceType": "Encounter",
        "id": "bd69e04f-3928-5131-0ec7-3581aece8c37",
        "status": "unknown",
        "class": {
          "code": "E",
          "display": "Emergency",
          "system": "urn:oid:2.16.840.1.113883.18.5"
        },
        "identifier": [
          {
            "system": "urn:oid:2.16.840.1.113883",
            "value": "Encounter/64979134/_history/19"
          },
          {
            "system": "urn:oid:2.16.840.1.113883.3.3316.200",
            "value": "3012551713"
          }
        ],
        "period": {
          "start": "2022-04-28T01:10:00Z",
          "end": "2022-04-28T11:21:00Z"
        },
        "subject": {
          "reference": "Patient/2dde8c35-e57c-4f3e-a77c-39e144e9deda"
        },
        "location": [
          {
            "id": "2.16.840.1.113883.4.6",
            "location": {
              "reference": "Location/6bd4f334-8624-cb56-3daf-13966d57a8d3",
              "display": "PRM- Palmdale Regional Medical Center"
            },
            "extension": [
              {
                "url": "http://build.fhir.org/ig/HL7/case-reporting/StructureDefinition-us-ph-location-definitions.html#Location.type",
                "valueCodeableConcept": {
                  "coding": [
                    {
                      "code": "prov",
                      "display": "Healthcare Provider",
                      "system": "urn:oid:2.16.840.1.113883.4.642.3.414"
                    }
                  ]
                }
              }
            ]
          }
        ],
        "participant": [
          {
            "type": [
              {
                "coding": [
                  {
                    "system": "http://terminology.hl7.org/CodeSystem/v3-ParticipationType",
                    "code": "ATND"
                  }
                ]
              }
            ],
            "individual": {
              "reference": "Practitioner/79842b6e-724b-8d57-dd2a-8d4b915f0558"
            }
          }
        ],
        "meta": {
          "source": [
            "ecr"
          ]
        }
      },
      "request": {
        "method": "PUT",
        "url": "Encounter/bd69e04f-3928-5131-0ec7-3581aece8c37"
      }
    },
    {
      "fullUrl": "urn:uuid:6bd4f334-8624-cb56-3daf-13966d57a8d3",
      "resource": {
        "resourceType": "Location",
        "id": "6bd4f334-8624-cb56-3daf-13966d57a8d3",
        "identifier": [
          {
            "value": "2.16.840.1.113883.4.6"
          }
        ],
        "name": "PRM- Palmdale Regional Medical Center",
        "address": {
          "line": [
            "38600 Medical Center Drive"
          ],
          "city": "Palmdale",
          "state": "CA",
          "country": "USA",
          "postalCode": "93551"
        },
        "telecom": [
          {
            "system": "phone",
            "value": "(661)382-5000",
            "use": "work"
          }
        ],
        "type": [
          {
            "coding": [
              {
                "code": "prov",
                "display": "Healthcare Provider",
                "system": "urn:oid:2.16.840.1.113883.4.642.3.414"
              }
            ]
          }
        ],
        "meta": {
          "source": [
            "ecr"
          ]
        }
      },
      "request": {
        "method": "PUT",
        "url": "Location/6bd4f334-8624-cb56-3daf-13966d57a8d3"
      }
    },
    {
      "fullUrl": "urn:uuid:79842b6e-724b-8d57-dd2a-8d4b915f0558",
      "resource": {
        "resourceType": "Practitioner",
        "id": "79842b6e-724b-8d57-dd2a-8d4b915f0558",
        "meta": {
          "profile": [
            "http://hl7.org/fhir/us/core/StructureDefinition/us-core-practitioner"
          ],
          "source": [
            "ecr"
          ]
        },
        "extension": [
          {
            "url": "http://hl7.org/fhir/StructureDefinition/_datatype",
            "valueString": "Responsible Party"
          }
        ],
        "identifier": [
          {
            "system": "urn:ietf:rfc:3986",
            "value": "urn:uuid:2.16.840.1.113883.4.6"
          }
        ],
        "name": [
          {
            "use": "usual",
            "text": "PRM- Palmdale Regional Medical Center"
          },
          {
            "family": "Physician",
            "given": [
              "ED Billing",
              "Discharge"
            ]
          }
        ],
        "address": [
          {
            "line": [
              "38600 Medical Center Drive"
            ],
            "city": "Palmdale",
            "state": "CA",
            "country": "USA",
            "postalCode": "93551"
          }
        ],
        "telecom": [
          {
            "system": "phone",
            "value": "(661)382-5000",
            "use": "work"
          }
        ]
      },
      "request": {
        "method": "PUT",
        "url": "Practitioner/79842b6e-724b-8d57-dd2a-8d4b915f0558"
      }
    },
    {
      "fullUrl": "urn:uuid:6a66c193-39d9-4e1c-a00b-48e967fea0cb",
      "resource": {
        "resourceType": "Observation",
        "id": "6a66c193-39d9-4e1c-a00b-48e967fea0cb",
        "meta": {
          "profile": [
            "http://hl7.org/fhir/us/core/StructureDefinition/us-core-observationresults"
          ],
          "source": [
            "ecr"
          ]
        },
        "identifier": [
          {
            "system": "urn:ietf:rfc:3986",
            "value": "urn:uuid:6a66c193-39d9-4e1c-a00b-48e967fea0cb"
          }
        ],
        "status": "final",
        "code": {
          "coding": [
            {
              "code": "64572001",
              "display": "Condition",
              "system": "http://snomed.info/sct"
            },
            {
              "code": "75323-6",
              "display": "Condition",
              "system": "http://loinc.org"
            }
          ]
        },
        "valueCodeableConcept": {
          "coding": [
            {
              "code": "840539006",
              "display": "Disease caused by severe acute respiratory syndrome coronavirus 2 (disorder)",
              "system": "http://snomed.info/sct"
            }
          ]
        }
      },
      "request": {
        "method": "PUT",
        "url": "Observation/6a66c193-39d9-4e1c-a00b-48e967fea0cb"
      }
    },
    {
      "fullUrl": "urn:uuid:91c4d2ba-e324-5b1a-a4cb-84d9690511d3",
      "resource": {
        "resourceType": "Organization",
        "id": "91c4d2ba-e324-5b1a-a4cb-84d9690511d3",
        "identifier": [
          {
            "system": "urn:oid:2.16.840.1.113883.3.3316.200",
            "value": "PRM"
          }
        ],
        "name": "PRM- Palmdale Regional Medical Center",
        "address": [
          {
            "line": [
              "38600 Medical Center Drive"
            ],
            "city": "Palmdale",
            "state": "CA",
            "country": "USA",
            "postalCode": "93551"
          }
        ],
        "telecom": [
          {
            "system": "phone",
            "value": "(661)382-5000",
            "use": "work"
          }
        ],
        "meta": {
          "source": [
            "ecr"
          ]
        }
      },
      "request": {
        "method": "PUT",
        "url": "Organization/91c4d2ba-e324-5b1a-a4cb-84d9690511d3"
      }
    },
    {
      "fullUrl": "urn:uuid:2dde8c35-e57c-4f3e-a77c-39e144e9deda",
      "resource": {
        "resourceType": "Patient",
        "id": "2dde8c35-e57c-4f3e-a77c-39e144e9deda",
        "meta": {
          "profile": [
            "http://hl7.org/fhir/us/core/StructureDefinition/us-core-patient"
          ],
          "source": [
            "ecr"
          ]
        },
        "identifier": [
          {
            "system": "urn:oid:2.16.840.1.113883.3.3316.100",
            "value": "10235328"
          }
        ],
        "name": [
          {
            "family": "BAUTISTA",
            "given": [
              "ERIKA"
            ]
          }
        ],
        "birthDate": "1974-07-28",
        "gender": "female",
        "extension": [
          {
            "url": "http://hl7.org/fhir/us/core/StructureDefinition/us-core-race",
            "extension": [
              {
                "url": "ombCategory",
                "valueCoding": {
                  "code": "2106-3",
                  "display": "White"
                }
              },
              {
                "url": "text",
                "valueString": "White"
              }
            ]
          },
          {
            "url": "http://hl7.org/fhir/us/core/StructureDefinition/us-core-ethnicity",
            "extension": [
              {
                "url": "ombCategory",
                "valueCoding": {
                  "code": "2135-2",
                  "display": "Hispanic or Latino"
                }
              },
              {
                "url": "text",
                "valueString": "Hispanic or Latino"
              }
            ]
          },
          {
            "url": "http://hl7.org/fhir/us/core/StructureDefinition/us-core-birthsex",
            "extension": [
              {
                "url": "value",
                "valueCodeableConcept": {
                  "coding": [
                    {
                      "code": "F",
                      "display": "Female",
                      "system": "urn:oid:2.16.840.1.113883.5.1"
                    }
                  ]
                }
              }
            ]
          }
        ],
        "address": [
          {
            "line": [
              "1535 E LINGARD ST"
            ],
            "city": "LANCASTER",
            "state": "CA",
            "country": "US",
            "postalCode": "93535-3406"
          }
        ],
        "telecom": [
          {
            "system": "phone",
            "value": "+15623608059",
            "use": "home"
          },
          {
            "system": "email",
            "value": "ERIKABAUTISTA94@YAHOO.COM"
          }
        ],
        "communication": [
          {
            "language": {
              "coding": [
                {
                  "system": "urn:ietf:bcp:47",
                  "code": "es",
                  "display": "Spanish"
                }
              ]
            }
          }
        ]
      },
      "request": {
        "method": "PUT",
        "url": "Patient/2dde8c35-e57c-4f3e-a77c-39e144e9deda"
      }
    },
    {
      "fullUrl": "urn:uuid:831c33e4-70f6-7547-5179-20910d22f0b1",
      "resource": {
        "resourceType": "DiagnosticReport",
        "id": "831c33e4-70f6-7547-5179-20910d22f0b1",
        "identifier": [
          {
            "system": "urn:ietf:rfc:3986",
            "value": "urn:uuid:158270b5-5f1d-41f5-b0cd-110a5a95d6fb"
          }
        ],
        "status": "final",
        "code": {
          "coding": [
            {
              "code": "5803-2",
              "system": "http://loinc.org"
            }
          ]
        },
        "subject": {
          "reference": "Patient/2dde8c35-e57c-4f3e-a77c-39e144e9deda"
        },
        "result": [
          {
            "reference": "Observation/c0cc3598-5880-fb01-bddd-be20af7771e8"
          }
        ],
        "meta": {
          "source": [
            "ecr"
          ]
        }
      },
      "request": {
        "method": "PUT",
        "url": "DiagnosticReport/831c33e4-70f6-7547-5179-20910d22f0b1"
      }
    },
    {
      "fullUrl": "urn:uuid:c0cc3598-5880-fb01-bddd-be20af7771e8",
      "resource": {
        "resourceType": "Observation",
        "id": "c0cc3598-5880-fb01-bddd-be20af7771e8",
        "meta": {
          "profile": [
            "http://hl7.org/fhir/us/core/StructureDefinition/us-core-observationresults"
          ],
          "source": [
            "ecr"
          ]
        },
        "identifier": [
          {
            "system": "urn:oid:2.16.840.1.113883",
            "value": "https://fhir-ehr.cerner.com/r4/da0b5d99-573c-4f5e-aaf6-8d39fa93d033/Observation/M-19366214805/_history/1"
          }
        ],
        "category": [
          {
            "coding": [
              {
                "system": "http://terminology.hl7.org/CodeSystem/observation-category",
                "code": "laboratory"
              }
            ]
          }
        ],
        "status": "final",
        "code": {
          "coding": [
            {
              "code": "5803-2",
              "system": "http://loinc.org"
            }
          ]
        },
        "effectiveDateTime": "2022-04-28T15:52:00Z",
        "valueQuantity": {
          "value": 5.0,
          "unit": "null"
        },
        "interpretation": [
          {
            "coding": [
              {
                "code": "N",
                "display": "Normal",
                "system": "http://terminology.hl7.org/CodeSystem/v3-ObservationInterpretation"
              }
            ]
          }
        ],
        "subject": {
          "reference": "Patient/2dde8c35-e57c-4f3e-a77c-39e144e9deda"
        }
      },
      "request": {
        "method": "PUT",
        "url": "Observation/c0cc3598-5880-fb01-bddd-be20af7771e8"
      }
    },
    {
      "fullUrl": "urn:uuid:48c515da-7e71-6c03-a305-c71be83cc8a0",
      "resource": {
        "resourceType": "DiagnosticReport",
        "id": "48c515da-7e71-6c03-a305-c71be83cc8a0",
        "identifier": [
          {
            "system": "urn:ietf:rfc:3986",
            "value": "urn:uuid:553ae10b-c725-4028-97ad-f28040a44504"
          }
        ],
        "status": "final",
        "code": {
          "coding": [
            {
              "code": "2965-2",
              "system": "http://loinc.org"
            }
          ]
        },
        "subject": {
          "reference": "Patient/2dde8c35-e57c-4f3e-a77c-39e144e9deda"
        },
        "result": [
          {
            "reference": "Observation/9d965aa1-5234-157f-8529-4833985df7f7"
          }
        ],
        "meta": {
          "source": [
            "ecr"
          ]
        }
      },
      "request": {
        "method": "PUT",
        "url": "DiagnosticReport/48c515da-7e71-6c03-a305-c71be83cc8a0"
      }
    },
    {
      "fullUrl": "urn:uuid:9d965aa1-5234-157f-8529-4833985df7f7",
      "resource": {
        "resourceType": "Observation",
        "id": "9d965aa1-5234-157f-8529-4833985df7f7",
        "meta": {
          "profile": [
            "http://hl7.org/fhir/us/core/StructureDefinition/us-core-observationresults"
          ],
          "source": [
            "ecr"
          ]
        },
        "identifier": [
          {
            "system": "urn:oid:2.16.840.1.113883",
            "value": "https://fhir-ehr.cerner.com/r4/da0b5d99-573c-4f5e-aaf6-8d39fa93d033/Observation/M-19366214801/_history/1"
          }
        ],
        "category": [
          {
            "coding": [
              {
                "system": "http://terminology.hl7.org/CodeSystem/observation-category",
                "code": "laboratory"
              }
            ]
          }
        ],
        "status": "final",
        "code": {
          "coding": [
            {
              "code": "2965-2",
              "system": "http://loinc.org"
            }
          ]
        },
        "effectiveDateTime": "2022-04-28T15:52:00Z",
        "valueQuantity": {
          "value": 1.015,
          "unit": "null"
        },
        "interpretation": [
          {
            "coding": [
              {
                "code": "N",
                "display": "Normal",
                "system": "http://terminology.hl7.org/CodeSystem/v3-ObservationInterpretation"
              }
            ]
          }
        ],
        "subject": {
          "reference": "Patient/2dde8c35-e57c-4f3e-a77c-39e144e9deda"
        }
      },
      "request": {
        "method": "PUT",
        "url": "Observation/9d965aa1-5234-157f-8529-4833985df7f7"
      }
    },
    {
      "fullUrl": "urn:uuid:e511c55b-4605-c4f8-f80a-41dab2c5492a",
      "resource": {
        "resourceType": "DiagnosticReport",
        "id": "e511c55b-4605-c4f8-f80a-41dab2c5492a",
        "identifier": [
          {
            "system": "urn:ietf:rfc:3986",
            "value": "urn:uuid:bba52e9b-8c45-4242-8bdf-943763c00312"
          }
        ],
        "status": "final",
        "code": {
          "coding": [
            {
              "code": "19161-9",
              "system": "http://loinc.org"
            }
          ]
        },
        "subject": {
          "reference": "Patient/2dde8c35-e57c-4f3e-a77c-39e144e9deda"
        },
        "result": [
          {
            "reference": "Observation/273d718d-e072-ed1c-df47-4729b142348f"
          }
        ],
        "meta": {
          "source": [
            "ecr"
          ]
        }
      },
      "request": {
        "method": "PUT",
        "url": "DiagnosticReport/e511c55b-4605-c4f8-f80a-41dab2c5492a"
      }
    },
    {
      "fullUrl": "urn:uuid:273d718d-e072-ed1c-df47-4729b142348f",
      "resource": {
        "resourceType": "Observation",
        "id": "273d718d-e072-ed1c-df47-4729b142348f",
        "meta": {
          "profile": [
            "http://hl7.org/fhir/us/core/StructureDefinition/us-core-observationresults"
          ],
          "source": [
            "ecr"
          ]
        },
        "identifier": [
          {
            "system": "urn:oid:2.16.840.1.113883",
            "value": "https://fhir-ehr.cerner.com/r4/da0b5d99-573c-4f5e-aaf6-8d39fa93d033/Observation/M-19366214809/_history/1"
          }
        ],
        "category": [
          {
            "coding": [
              {
                "system": "http://terminology.hl7.org/CodeSystem/observation-category",
                "code": "laboratory"
              }
            ]
          }
        ],
        "status": "final",
        "code": {
          "coding": [
            {
              "code": "19161-9",
              "system": "http://loinc.org"
            }
          ]
        },
        "effectiveDateTime": "2022-04-28T15:52:00Z",
        "interpretation": [
          {
            "coding": [
              {
                "code": "N",
                "display": "Normal",
                "system": "http://terminology.hl7.org/CodeSystem/v3-ObservationInterpretation"
              }
            ]
          }
        ],
        "subject": {
          "reference": "Patient/2dde8c35-e57c-4f3e-a77c-39e144e9deda"
        }
      },
      "request": {
        "method": "PUT",
        "url": "Observation/273d718d-e072-ed1c-df47-4729b142348f"
      }
    },
    {
      "fullUrl": "urn:uuid:8d0ba789-4d7c-017b-42c3-e1bf5a19a674",
      "resource": {
        "resourceType": "DiagnosticReport",
        "id": "8d0ba789-4d7c-017b-42c3-e1bf5a19a674",
        "identifier": [
          {
            "system": "urn:ietf:rfc:3986",
            "value": "urn:uuid:af6101ce-ed8a-4bae-99c6-a46befa6debb"
          }
        ],
        "status": "final",
        "code": {
          "coding": [
            {
              "code": "725-2",
              "system": "http://loinc.org"
            }
          ]
        },
        "subject": {
          "reference": "Patient/2dde8c35-e57c-4f3e-a77c-39e144e9deda"
        },
        "result": [
          {
            "reference": "Observation/19d97a5d-daf3-f247-a9a9-037bef0d8364"
          }
        ],
        "meta": {
          "source": [
            "ecr"
          ]
        }
      },
      "request": {
        "method": "PUT",
        "url": "DiagnosticReport/8d0ba789-4d7c-017b-42c3-e1bf5a19a674"
      }
    },
    {
      "fullUrl": "urn:uuid:19d97a5d-daf3-f247-a9a9-037bef0d8364",
      "resource": {
        "resourceType": "Observation",
        "id": "19d97a5d-daf3-f247-a9a9-037bef0d8364",
        "meta": {
          "profile": [
            "http://hl7.org/fhir/us/core/StructureDefinition/us-core-observationresults"
          ],
          "source": [
            "ecr"
          ]
        },
        "identifier": [
          {
            "system": "urn:oid:2.16.840.1.113883",
            "value": "https://fhir-ehr.cerner.com/r4/da0b5d99-573c-4f5e-aaf6-8d39fa93d033/Observation/M-19366214803/_history/1"
          }
        ],
        "category": [
          {
            "coding": [
              {
                "system": "http://terminology.hl7.org/CodeSystem/observation-category",
                "code": "laboratory"
              }
            ]
          }
        ],
        "status": "final",
        "code": {
          "coding": [
            {
              "code": "725-2",
              "system": "http://loinc.org"
            }
          ]
        },
        "effectiveDateTime": "2022-04-28T15:52:00Z",
        "valueCodeableConcept": {
          "coding": [
            {
              "code": "260347006",
              "display": "+ (qualifier value)",
              "system": "http://snomed.info/sct"
            }
          ]
        },
        "interpretation": [
          {
            "coding": [
              {
                "code": "A",
                "display": "Abnormal",
                "system": "http://terminology.hl7.org/CodeSystem/v3-ObservationInterpretation"
              }
            ]
          }
        ],
        "subject": {
          "reference": "Patient/2dde8c35-e57c-4f3e-a77c-39e144e9deda"
        }
      },
      "request": {
        "method": "PUT",
        "url": "Observation/19d97a5d-daf3-f247-a9a9-037bef0d8364"
      }
    },
    {
      "fullUrl": "urn:uuid:7fc76180-51fc-3f0b-afc4-21176d49674a",
      "resource": {
        "resourceType": "DiagnosticReport",
        "id": "7fc76180-51fc-3f0b-afc4-21176d49674a",
        "identifier": [
          {
            "system": "urn:ietf:rfc:3986",
            "value": "urn:uuid:a7d79001-c4db-4998-beef-dd987d4eaf9d"
          }
        ],
        "status": "final",
        "code": {
          "coding": [
            {
              "code": "1977-8",
              "system": "http://loinc.org"
            }
          ]
        },
        "subject": {
          "reference": "Patient/2dde8c35-e57c-4f3e-a77c-39e144e9deda"
        },
        "result": [
          {
            "reference": "Observation/04cf1d63-90d6-30f8-e52a-5933a2bd858a"
          }
        ],
        "meta": {
          "source": [
            "ecr"
          ]
        }
      },
      "request": {
        "method": "PUT",
        "url": "DiagnosticReport/7fc76180-51fc-3f0b-afc4-21176d49674a"
      }
    },
    {
      "fullUrl": "urn:uuid:04cf1d63-90d6-30f8-e52a-5933a2bd858a",
      "resource": {
        "resourceType": "Observation",
        "id": "04cf1d63-90d6-30f8-e52a-5933a2bd858a",
        "meta": {
          "profile": [
            "http://hl7.org/fhir/us/core/StructureDefinition/us-core-observationresults"
          ],
          "source": [
            "ecr"
          ]
        },
        "identifier": [
          {
            "system": "urn:oid:2.16.840.1.113883",
            "value": "https://fhir-ehr.cerner.com/r4/da0b5d99-573c-4f5e-aaf6-8d39fa93d033/Observation/M-19366214797/_history/1"
          }
        ],
        "category": [
          {
            "coding": [
              {
                "system": "http://terminology.hl7.org/CodeSystem/observation-category",
                "code": "laboratory"
              }
            ]
          }
        ],
        "status": "final",
        "code": {
          "coding": [
            {
              "code": "1977-8",
              "system": "http://loinc.org"
            }
          ]
        },
        "effectiveDateTime": "2022-04-28T15:52:00Z",
        "valueCodeableConcept": {
          "coding": [
            {
              "code": "260385009",
              "display": "Negative (qualifier value)",
              "system": "http://snomed.info/sct"
            }
          ]
        },
        "interpretation": [
          {
            "coding": [
              {
                "code": "N",
                "display": "Normal",
                "system": "http://terminology.hl7.org/CodeSystem/v3-ObservationInterpretation"
              }
            ]
          }
        ],
        "subject": {
          "reference": "Patient/2dde8c35-e57c-4f3e-a77c-39e144e9deda"
        }
      },
      "request": {
        "method": "PUT",
        "url": "Observation/04cf1d63-90d6-30f8-e52a-5933a2bd858a"
      }
    },
    {
      "fullUrl": "urn:uuid:06c4a3eb-6b8b-fbc1-e9b2-75a0d508702d",
      "resource": {
        "resourceType": "DiagnosticReport",
        "id": "06c4a3eb-6b8b-fbc1-e9b2-75a0d508702d",
        "identifier": [
          {
            "system": "urn:ietf:rfc:3986",
            "value": "urn:uuid:97ba378d-2d34-470a-83e7-8518169d9f3f"
          }
        ],
        "status": "final",
        "code": {
          "coding": [
            {
              "code": "5799-2",
              "system": "http://loinc.org"
            }
          ]
        },
        "subject": {
          "reference": "Patient/2dde8c35-e57c-4f3e-a77c-39e144e9deda"
        },
        "result": [
          {
            "reference": "Observation/c40af3d4-d2dc-8c1d-5880-7ff38dfecaf4"
          }
        ],
        "meta": {
          "source": [
            "ecr"
          ]
        }
      },
      "request": {
        "method": "PUT",
        "url": "DiagnosticReport/06c4a3eb-6b8b-fbc1-e9b2-75a0d508702d"
      }
    },
    {
      "fullUrl": "urn:uuid:c40af3d4-d2dc-8c1d-5880-7ff38dfecaf4",
      "resource": {
        "resourceType": "Observation",
        "id": "c40af3d4-d2dc-8c1d-5880-7ff38dfecaf4",
        "meta": {
          "profile": [
            "http://hl7.org/fhir/us/core/StructureDefinition/us-core-observationresults"
          ],
          "source": [
            "ecr"
          ]
        },
        "identifier": [
          {
            "system": "urn:oid:2.16.840.1.113883",
            "value": "https://fhir-ehr.cerner.com/r4/da0b5d99-573c-4f5e-aaf6-8d39fa93d033/Observation/M-19366214813/_history/1"
          }
        ],
        "category": [
          {
            "coding": [
              {
                "system": "http://terminology.hl7.org/CodeSystem/observation-category",
                "code": "laboratory"
              }
            ]
          }
        ],
        "status": "final",
        "code": {
          "coding": [
            {
              "code": "5799-2",
              "system": "http://loinc.org"
            }
          ]
        },
        "effectiveDateTime": "2022-04-28T15:52:00Z",
        "valueCodeableConcept": {
          "coding": [
            {
              "code": "260347006",
              "display": "+ (qualifier value)",
              "system": "http://snomed.info/sct"
            }
          ]
        },
        "interpretation": [
          {
            "coding": [
              {
                "code": "A",
                "display": "Abnormal",
                "system": "http://terminology.hl7.org/CodeSystem/v3-ObservationInterpretation"
              }
            ]
          }
        ],
        "subject": {
          "reference": "Patient/2dde8c35-e57c-4f3e-a77c-39e144e9deda"
        }
      },
      "request": {
        "method": "PUT",
        "url": "Observation/c40af3d4-d2dc-8c1d-5880-7ff38dfecaf4"
      }
    },
    {
      "fullUrl": "urn:uuid:316f91f2-2ea7-830a-99b6-830b053ffcd6",
      "resource": {
        "resourceType": "DiagnosticReport",
        "id": "316f91f2-2ea7-830a-99b6-830b053ffcd6",
        "identifier": [
          {
            "system": "urn:ietf:rfc:3986",
            "value": "urn:uuid:962f6d73-134e-48b7-889e-484a93449ce9"
          }
        ],
        "status": "final",
        "code": {
          "coding": [
            {
              "code": "5778-6",
              "system": "http://loinc.org"
            }
          ]
        },
        "subject": {
          "reference": "Patient/2dde8c35-e57c-4f3e-a77c-39e144e9deda"
        },
        "result": [
          {
            "reference": "Observation/2eb37bef-754f-6f02-8765-125055578e4e"
          }
        ],
        "meta": {
          "source": [
            "ecr"
          ]
        }
      },
      "request": {
        "method": "PUT",
        "url": "DiagnosticReport/316f91f2-2ea7-830a-99b6-830b053ffcd6"
      }
    },
    {
      "fullUrl": "urn:uuid:2eb37bef-754f-6f02-8765-125055578e4e",
      "resource": {
        "resourceType": "Observation",
        "id": "2eb37bef-754f-6f02-8765-125055578e4e",
        "meta": {
          "profile": [
            "http://hl7.org/fhir/us/core/StructureDefinition/us-core-observationresults"
          ],
          "source": [
            "ecr"
          ]
        },
        "identifier": [
          {
            "system": "urn:oid:2.16.840.1.113883",
            "value": "https://fhir-ehr.cerner.com/r4/da0b5d99-573c-4f5e-aaf6-8d39fa93d033/Observation/M-19366214791/_history/1"
          }
        ],
        "category": [
          {
            "coding": [
              {
                "system": "http://terminology.hl7.org/CodeSystem/observation-category",
                "code": "laboratory"
              }
            ]
          }
        ],
        "status": "final",
        "code": {
          "coding": [
            {
              "code": "5778-6",
              "system": "http://loinc.org"
            }
          ]
        },
        "effectiveDateTime": "2022-04-28T15:52:00Z",
        "valueCodeableConcept": {
          "coding": [
            {
              "code": "371244009",
              "display": "Yellow color (qualifier value)",
              "system": "http://snomed.info/sct"
            }
          ]
        },
        "interpretation": [
          {
            "coding": [
              {
                "code": "N",
                "display": "Normal",
                "system": "http://terminology.hl7.org/CodeSystem/v3-ObservationInterpretation"
              }
            ]
          }
        ],
        "subject": {
          "reference": "Patient/2dde8c35-e57c-4f3e-a77c-39e144e9deda"
        }
      },
      "request": {
        "method": "PUT",
        "url": "Observation/2eb37bef-754f-6f02-8765-125055578e4e"
      }
    },
    {
      "fullUrl": "urn:uuid:5dea4e08-0cfb-6756-d47f-de38b1cb057d",
      "resource": {
        "resourceType": "DiagnosticReport",
        "id": "5dea4e08-0cfb-6756-d47f-de38b1cb057d",
        "identifier": [
          {
            "system": "urn:ietf:rfc:3986",
            "value": "urn:uuid:e7c7e116-4871-4aff-a283-255a5716f5ed"
          }
        ],
        "status": "final",
        "code": {
          "coding": [
            {
              "code": "8247-9",
              "system": "http://loinc.org"
            }
          ]
        },
        "subject": {
          "reference": "Patient/2dde8c35-e57c-4f3e-a77c-39e144e9deda"
        },
        "result": [
          {
            "reference": "Observation/edc5baa1-3f57-e3f0-1592-f373952e7aa5"
          }
        ],
        "meta": {
          "source": [
            "ecr"
          ]
        }
      },
      "request": {
        "method": "PUT",
        "url": "DiagnosticReport/5dea4e08-0cfb-6756-d47f-de38b1cb057d"
      }
    },
    {
      "fullUrl": "urn:uuid:edc5baa1-3f57-e3f0-1592-f373952e7aa5",
      "resource": {
        "resourceType": "Observation",
        "id": "edc5baa1-3f57-e3f0-1592-f373952e7aa5",
        "meta": {
          "profile": [
            "http://hl7.org/fhir/us/core/StructureDefinition/us-core-observationresults"
          ],
          "source": [
            "ecr"
          ]
        },
        "identifier": [
          {
            "system": "urn:oid:2.16.840.1.113883",
            "value": "https://fhir-ehr.cerner.com/r4/da0b5d99-573c-4f5e-aaf6-8d39fa93d033/Observation/M-19366214844/_history/1"
          }
        ],
        "category": [
          {
            "coding": [
              {
                "system": "http://terminology.hl7.org/CodeSystem/observation-category",
                "code": "laboratory"
              }
            ]
          }
        ],
        "status": "final",
        "code": {
          "coding": [
            {
              "code": "8247-9",
              "system": "http://loinc.org"
            }
          ]
        },
        "effectiveDateTime": "2022-04-28T15:52:00Z",
        "valueCodeableConcept": {
          "coding": [
            {
              "code": "89292003",
              "display": "Rare (qualifier value)",
              "system": "http://snomed.info/sct"
            }
          ]
        },
        "interpretation": [
          {
            "coding": [
              {
                "code": "N",
                "display": "Normal",
                "system": "http://terminology.hl7.org/CodeSystem/v3-ObservationInterpretation"
              }
            ]
          }
        ],
        "subject": {
          "reference": "Patient/2dde8c35-e57c-4f3e-a77c-39e144e9deda"
        }
      },
      "request": {
        "method": "PUT",
        "url": "Observation/edc5baa1-3f57-e3f0-1592-f373952e7aa5"
      }
    },
    {
      "fullUrl": "urn:uuid:21ce1e89-96df-89a0-96e2-a3a65c8411a4",
      "resource": {
        "resourceType": "DiagnosticReport",
        "id": "21ce1e89-96df-89a0-96e2-a3a65c8411a4",
        "identifier": [
          {
            "system": "urn:ietf:rfc:3986",
            "value": "urn:uuid:5643bf0f-580d-4d63-97ab-b79f87bdcb6c"
          }
        ],
        "status": "final",
        "code": {
          "coding": [
            {
              "code": "11277-1",
              "system": "http://loinc.org"
            }
          ]
        },
        "subject": {
          "reference": "Patient/2dde8c35-e57c-4f3e-a77c-39e144e9deda"
        },
        "result": [
          {
            "reference": "Observation/5c083cac-4d5e-c267-613e-4b503c16f1c4"
          }
        ],
        "meta": {
          "source": [
            "ecr"
          ]
        }
      },
      "request": {
        "method": "PUT",
        "url": "DiagnosticReport/21ce1e89-96df-89a0-96e2-a3a65c8411a4"
      }
    },
    {
      "fullUrl": "urn:uuid:5c083cac-4d5e-c267-613e-4b503c16f1c4",
      "resource": {
        "resourceType": "Observation",
        "id": "5c083cac-4d5e-c267-613e-4b503c16f1c4",
        "meta": {
          "profile": [
            "http://hl7.org/fhir/us/core/StructureDefinition/us-core-observationresults"
          ],
          "source": [
            "ecr"
          ]
        },
        "identifier": [
          {
            "system": "urn:oid:2.16.840.1.113883",
            "value": "https://fhir-ehr.cerner.com/r4/da0b5d99-573c-4f5e-aaf6-8d39fa93d033/Observation/M-19366214840/_history/1"
          }
        ],
        "category": [
          {
            "coding": [
              {
                "system": "http://terminology.hl7.org/CodeSystem/observation-category",
                "code": "laboratory"
              }
            ]
          }
        ],
        "status": "final",
        "code": {
          "coding": [
            {
              "code": "11277-1",
              "system": "http://loinc.org"
            }
          ]
        },
        "effectiveDateTime": "2022-04-28T15:52:00Z",
        "valueQuantity": {
          "value": 5,
          "unit": "/HPF"
        },
        "interpretation": [
          {
            "coding": [
              {
                "code": "H",
                "display": "High",
                "system": "http://terminology.hl7.org/CodeSystem/v3-ObservationInterpretation"
              }
            ]
          }
        ],
        "subject": {
          "reference": "Patient/2dde8c35-e57c-4f3e-a77c-39e144e9deda"
        }
      },
      "request": {
        "method": "PUT",
        "url": "Observation/5c083cac-4d5e-c267-613e-4b503c16f1c4"
      }
    },
    {
      "fullUrl": "urn:uuid:9ac38b88-0d22-c38b-ba8d-f6f97128ac28",
      "resource": {
        "resourceType": "DiagnosticReport",
        "id": "9ac38b88-0d22-c38b-ba8d-f6f97128ac28",
        "identifier": [
          {
            "system": "urn:ietf:rfc:3986",
            "value": "urn:uuid:a54ceefb-7622-4c52-abc6-424b17744d17"
          }
        ],
        "status": "final",
        "code": {
          "coding": [
            {
              "code": "5821-4",
              "system": "http://loinc.org"
            }
          ]
        },
        "subject": {
          "reference": "Patient/2dde8c35-e57c-4f3e-a77c-39e144e9deda"
        },
        "result": [
          {
            "reference": "Observation/657dbf49-244b-680a-37ff-2b596d83815d"
          }
        ],
        "meta": {
          "source": [
            "ecr"
          ]
        }
      },
      "request": {
        "method": "PUT",
        "url": "DiagnosticReport/9ac38b88-0d22-c38b-ba8d-f6f97128ac28"
      }
    },
    {
      "fullUrl": "urn:uuid:657dbf49-244b-680a-37ff-2b596d83815d",
      "resource": {
        "resourceType": "Observation",
        "id": "657dbf49-244b-680a-37ff-2b596d83815d",
        "meta": {
          "profile": [
            "http://hl7.org/fhir/us/core/StructureDefinition/us-core-observationresults"
          ],
          "source": [
            "ecr"
          ]
        },
        "identifier": [
          {
            "system": "urn:oid:2.16.840.1.113883",
            "value": "https://fhir-ehr.cerner.com/r4/da0b5d99-573c-4f5e-aaf6-8d39fa93d033/Observation/M-19366214836/_history/1"
          }
        ],
        "category": [
          {
            "coding": [
              {
                "system": "http://terminology.hl7.org/CodeSystem/observation-category",
                "code": "laboratory"
              }
            ]
          }
        ],
        "status": "final",
        "code": {
          "coding": [
            {
              "code": "5821-4",
              "system": "http://loinc.org"
            }
          ]
        },
        "effectiveDateTime": "2022-04-28T15:52:00Z",
        "valueQuantity": {
          "value": 18,
          "unit": "/HPF"
        },
        "interpretation": [
          {
            "coding": [
              {
                "code": "H",
                "display": "High",
                "system": "http://terminology.hl7.org/CodeSystem/v3-ObservationInterpretation"
              }
            ]
          }
        ],
        "subject": {
          "reference": "Patient/2dde8c35-e57c-4f3e-a77c-39e144e9deda"
        }
      },
      "request": {
        "method": "PUT",
        "url": "Observation/657dbf49-244b-680a-37ff-2b596d83815d"
      }
    },
    {
      "fullUrl": "urn:uuid:7dc4f03e-1fca-5dc6-1fca-67874b1d01d2",
      "resource": {
        "resourceType": "DiagnosticReport",
        "id": "7dc4f03e-1fca-5dc6-1fca-67874b1d01d2",
        "identifier": [
          {
            "system": "urn:ietf:rfc:3986",
            "value": "urn:uuid:e992748d-8d16-416a-a7f5-17319229f8e5"
          }
        ],
        "status": "final",
        "code": {
          "coding": [
            {
              "code": "13945-1",
              "system": "http://loinc.org"
            }
          ]
        },
        "subject": {
          "reference": "Patient/2dde8c35-e57c-4f3e-a77c-39e144e9deda"
        },
        "result": [
          {
            "reference": "Observation/bd571d99-6e01-de30-8423-b2aaf161c5c0"
          }
        ],
        "meta": {
          "source": [
            "ecr"
          ]
        }
      },
      "request": {
        "method": "PUT",
        "url": "DiagnosticReport/7dc4f03e-1fca-5dc6-1fca-67874b1d01d2"
      }
    },
    {
      "fullUrl": "urn:uuid:bd571d99-6e01-de30-8423-b2aaf161c5c0",
      "resource": {
        "resourceType": "Observation",
        "id": "bd571d99-6e01-de30-8423-b2aaf161c5c0",
        "meta": {
          "profile": [
            "http://hl7.org/fhir/us/core/StructureDefinition/us-core-observationresults"
          ],
          "source": [
            "ecr"
          ]
        },
        "identifier": [
          {
            "system": "urn:oid:2.16.840.1.113883",
            "value": "https://fhir-ehr.cerner.com/r4/da0b5d99-573c-4f5e-aaf6-8d39fa93d033/Observation/M-19366214838/_history/1"
          }
        ],
        "category": [
          {
            "coding": [
              {
                "system": "http://terminology.hl7.org/CodeSystem/observation-category",
                "code": "laboratory"
              }
            ]
          }
        ],
        "status": "final",
        "code": {
          "coding": [
            {
              "code": "13945-1",
              "system": "http://loinc.org"
            }
          ]
        },
        "effectiveDateTime": "2022-04-28T15:52:00Z",
        "valueQuantity": {
          "value": 2,
          "unit": "/HPF"
        },
        "interpretation": [
          {
            "coding": [
              {
                "code": "H",
                "display": "High",
                "system": "http://terminology.hl7.org/CodeSystem/v3-ObservationInterpretation"
              }
            ]
          }
        ],
        "subject": {
          "reference": "Patient/2dde8c35-e57c-4f3e-a77c-39e144e9deda"
        }
      },
      "request": {
        "method": "PUT",
        "url": "Observation/bd571d99-6e01-de30-8423-b2aaf161c5c0"
      }
    },
    {
      "fullUrl": "urn:uuid:63580d07-dc89-573f-052a-329c06a9901c",
      "resource": {
        "resourceType": "DiagnosticReport",
        "id": "63580d07-dc89-573f-052a-329c06a9901c",
        "identifier": [
          {
            "system": "urn:ietf:rfc:3986",
            "value": "urn:uuid:e400abe6-31c1-46ed-9126-5c8dbb413e80"
          }
        ],
        "status": "final",
        "code": {
          "coding": [
            {
              "code": "5804-0",
              "system": "http://loinc.org"
            }
          ]
        },
        "subject": {
          "reference": "Patient/2dde8c35-e57c-4f3e-a77c-39e144e9deda"
        },
        "result": [
          {
            "reference": "Observation/94a346ae-1e0c-334f-b817-b91367d28803"
          }
        ],
        "meta": {
          "source": [
            "ecr"
          ]
        }
      },
      "request": {
        "method": "PUT",
        "url": "DiagnosticReport/63580d07-dc89-573f-052a-329c06a9901c"
      }
    },
    {
      "fullUrl": "urn:uuid:94a346ae-1e0c-334f-b817-b91367d28803",
      "resource": {
        "resourceType": "Observation",
        "id": "94a346ae-1e0c-334f-b817-b91367d28803",
        "meta": {
          "profile": [
            "http://hl7.org/fhir/us/core/StructureDefinition/us-core-observationresults"
          ],
          "source": [
            "ecr"
          ]
        },
        "identifier": [
          {
            "system": "urn:oid:2.16.840.1.113883",
            "value": "https://fhir-ehr.cerner.com/r4/da0b5d99-573c-4f5e-aaf6-8d39fa93d033/Observation/M-19366214807/_history/1"
          }
        ],
        "category": [
          {
            "coding": [
              {
                "system": "http://terminology.hl7.org/CodeSystem/observation-category",
                "code": "laboratory"
              }
            ]
          }
        ],
        "status": "final",
        "code": {
          "coding": [
            {
              "code": "5804-0",
              "system": "http://loinc.org"
            }
          ]
        },
        "effectiveDateTime": "2022-04-28T15:52:00Z",
        "valueCodeableConcept": {
          "coding": [
            {
              "code": "260385009",
              "display": "Negative (qualifier value)",
              "system": "http://snomed.info/sct"
            }
          ]
        },
        "interpretation": [
          {
            "coding": [
              {
                "code": "N",
                "display": "Normal",
                "system": "http://terminology.hl7.org/CodeSystem/v3-ObservationInterpretation"
              }
            ]
          }
        ],
        "subject": {
          "reference": "Patient/2dde8c35-e57c-4f3e-a77c-39e144e9deda"
        }
      },
      "request": {
        "method": "PUT",
        "url": "Observation/94a346ae-1e0c-334f-b817-b91367d28803"
      }
    },
    {
      "fullUrl": "urn:uuid:cd5f97a8-9e4a-97ce-b0be-25e30581c2d1",
      "resource": {
        "resourceType": "DiagnosticReport",
        "id": "cd5f97a8-9e4a-97ce-b0be-25e30581c2d1",
        "identifier": [
          {
            "system": "urn:ietf:rfc:3986",
            "value": "urn:uuid:ceee1d6b-8e56-4852-8178-e162a61c7376"
          }
        ],
        "status": "final",
        "code": {
          "coding": [
            {
              "code": "5802-4",
              "system": "http://loinc.org"
            }
          ]
        },
        "subject": {
          "reference": "Patient/2dde8c35-e57c-4f3e-a77c-39e144e9deda"
        },
        "result": [
          {
            "reference": "Observation/c41559d0-beb5-512d-589b-d59a2e4f6d59"
          }
        ],
        "meta": {
          "source": [
            "ecr"
          ]
        }
      },
      "request": {
        "method": "PUT",
        "url": "DiagnosticReport/cd5f97a8-9e4a-97ce-b0be-25e30581c2d1"
      }
    },
    {
      "fullUrl": "urn:uuid:c41559d0-beb5-512d-589b-d59a2e4f6d59",
      "resource": {
        "resourceType": "Observation",
        "id": "c41559d0-beb5-512d-589b-d59a2e4f6d59",
        "meta": {
          "profile": [
            "http://hl7.org/fhir/us/core/StructureDefinition/us-core-observationresults"
          ],
          "source": [
            "ecr"
          ]
        },
        "identifier": [
          {
            "system": "urn:oid:2.16.840.1.113883",
            "value": "https://fhir-ehr.cerner.com/r4/da0b5d99-573c-4f5e-aaf6-8d39fa93d033/Observation/M-19366214811/_history/1"
          }
        ],
        "category": [
          {
            "coding": [
              {
                "system": "http://terminology.hl7.org/CodeSystem/observation-category",
                "code": "laboratory"
              }
            ]
          }
        ],
        "status": "final",
        "code": {
          "coding": [
            {
              "code": "5802-4",
              "system": "http://loinc.org"
            }
          ]
        },
        "effectiveDateTime": "2022-04-28T15:52:00Z",
        "valueCodeableConcept": {
          "coding": [
            {
              "code": "260385009",
              "display": "Negative (qualifier value)",
              "system": "http://snomed.info/sct"
            }
          ]
        },
        "interpretation": [
          {
            "coding": [
              {
                "code": "N",
                "display": "Normal",
                "system": "http://terminology.hl7.org/CodeSystem/v3-ObservationInterpretation"
              }
            ]
          }
        ],
        "subject": {
          "reference": "Patient/2dde8c35-e57c-4f3e-a77c-39e144e9deda"
        }
      },
      "request": {
        "method": "PUT",
        "url": "Observation/c41559d0-beb5-512d-589b-d59a2e4f6d59"
      }
    },
    {
      "fullUrl": "urn:uuid:31f08ab7-08bc-5d10-324a-d6779dedfeb6",
      "resource": {
        "resourceType": "DiagnosticReport",
        "id": "31f08ab7-08bc-5d10-324a-d6779dedfeb6",
        "identifier": [
          {
            "system": "urn:ietf:rfc:3986",
            "value": "urn:uuid:11c0e5a4-5108-485e-aa78-7fe3e921de59"
          }
        ],
        "status": "final",
        "code": {
          "coding": [
            {
              "code": "33903-6",
              "system": "http://loinc.org"
            }
          ]
        },
        "subject": {
          "reference": "Patient/2dde8c35-e57c-4f3e-a77c-39e144e9deda"
        },
        "result": [
          {
            "reference": "Observation/4eca3dd5-765e-3203-9bcb-5a7d0c36acd8"
          }
        ],
        "meta": {
          "source": [
            "ecr"
          ]
        }
      },
      "request": {
        "method": "PUT",
        "url": "DiagnosticReport/31f08ab7-08bc-5d10-324a-d6779dedfeb6"
      }
    },
    {
      "fullUrl": "urn:uuid:4eca3dd5-765e-3203-9bcb-5a7d0c36acd8",
      "resource": {
        "resourceType": "Observation",
        "id": "4eca3dd5-765e-3203-9bcb-5a7d0c36acd8",
        "meta": {
          "profile": [
            "http://hl7.org/fhir/us/core/StructureDefinition/us-core-observationresults"
          ],
          "source": [
            "ecr"
          ]
        },
        "identifier": [
          {
            "system": "urn:oid:2.16.840.1.113883",
            "value": "https://fhir-ehr.cerner.com/r4/da0b5d99-573c-4f5e-aaf6-8d39fa93d033/Observation/M-19366214799/_history/1"
          }
        ],
        "category": [
          {
            "coding": [
              {
                "system": "http://terminology.hl7.org/CodeSystem/observation-category",
                "code": "laboratory"
              }
            ]
          }
        ],
        "status": "final",
        "code": {
          "coding": [
            {
              "code": "33903-6",
              "system": "http://loinc.org"
            }
          ]
        },
        "effectiveDateTime": "2022-04-28T15:52:00Z",
        "valueCodeableConcept": {
          "coding": [
            {
              "code": "260385009",
              "display": "Negative (qualifier value)",
              "system": "http://snomed.info/sct"
            }
          ]
        },
        "interpretation": [
          {
            "coding": [
              {
                "code": "N",
                "display": "Normal",
                "system": "http://terminology.hl7.org/CodeSystem/v3-ObservationInterpretation"
              }
            ]
          }
        ],
        "subject": {
          "reference": "Patient/2dde8c35-e57c-4f3e-a77c-39e144e9deda"
        }
      },
      "request": {
        "method": "PUT",
        "url": "Observation/4eca3dd5-765e-3203-9bcb-5a7d0c36acd8"
      }
    },
    {
      "fullUrl": "urn:uuid:45671283-86b0-a096-9695-c6a2e5eac6e6",
      "resource": {
        "resourceType": "DiagnosticReport",
        "id": "45671283-86b0-a096-9695-c6a2e5eac6e6",
        "identifier": [
          {
            "system": "urn:ietf:rfc:3986",
            "value": "urn:uuid:d499e13e-0670-4c6e-99f2-2011807bbc45"
          }
        ],
        "status": "final",
        "code": {
          "coding": [
            {
              "code": "2350-7",
              "system": "http://loinc.org"
            }
          ]
        },
        "subject": {
          "reference": "Patient/2dde8c35-e57c-4f3e-a77c-39e144e9deda"
        },
        "result": [
          {
            "reference": "Observation/27496d26-ea37-6f8a-6b94-49d7b3b76f93"
          }
        ],
        "meta": {
          "source": [
            "ecr"
          ]
        }
      },
      "request": {
        "method": "PUT",
        "url": "DiagnosticReport/45671283-86b0-a096-9695-c6a2e5eac6e6"
      }
    },
    {
      "fullUrl": "urn:uuid:27496d26-ea37-6f8a-6b94-49d7b3b76f93",
      "resource": {
        "resourceType": "Observation",
        "id": "27496d26-ea37-6f8a-6b94-49d7b3b76f93",
        "meta": {
          "profile": [
            "http://hl7.org/fhir/us/core/StructureDefinition/us-core-observationresults"
          ],
          "source": [
            "ecr"
          ]
        },
        "identifier": [
          {
            "system": "urn:oid:2.16.840.1.113883",
            "value": "https://fhir-ehr.cerner.com/r4/da0b5d99-573c-4f5e-aaf6-8d39fa93d033/Observation/M-19366214795/_history/1"
          }
        ],
        "category": [
          {
            "coding": [
              {
                "system": "http://terminology.hl7.org/CodeSystem/observation-category",
                "code": "laboratory"
              }
            ]
          }
        ],
        "status": "final",
        "code": {
          "coding": [
            {
              "code": "2350-7",
              "system": "http://loinc.org"
            }
          ]
        },
        "effectiveDateTime": "2022-04-28T15:52:00Z",
        "valueCodeableConcept": {
          "coding": [
            {
              "code": "260385009",
              "display": "Negative (qualifier value)",
              "system": "http://snomed.info/sct"
            }
          ]
        },
        "interpretation": [
          {
            "coding": [
              {
                "code": "N",
                "display": "Normal",
                "system": "http://terminology.hl7.org/CodeSystem/v3-ObservationInterpretation"
              }
            ]
          }
        ],
        "subject": {
          "reference": "Patient/2dde8c35-e57c-4f3e-a77c-39e144e9deda"
        }
      },
      "request": {
        "method": "PUT",
        "url": "Observation/27496d26-ea37-6f8a-6b94-49d7b3b76f93"
      }
    },
    {
      "fullUrl": "urn:uuid:b2affc69-deab-bdd1-d513-9d78d448f15d",
      "resource": {
        "resourceType": "DiagnosticReport",
        "id": "b2affc69-deab-bdd1-d513-9d78d448f15d",
        "identifier": [
          {
            "system": "urn:ietf:rfc:3986",
            "value": "urn:uuid:59a8bd10-0a0a-4ef7-8004-7ae1d5763417"
          }
        ],
        "status": "final",
        "code": {
          "coding": [
            {
              "code": "5769-5",
              "system": "http://loinc.org"
            }
          ]
        },
        "subject": {
          "reference": "Patient/2dde8c35-e57c-4f3e-a77c-39e144e9deda"
        },
        "result": [
          {
            "reference": "Observation/9e9da6c8-1353-16d9-537a-64d64fa66569"
          }
        ],
        "meta": {
          "source": [
            "ecr"
          ]
        }
      },
      "request": {
        "method": "PUT",
        "url": "DiagnosticReport/b2affc69-deab-bdd1-d513-9d78d448f15d"
      }
    },
    {
      "fullUrl": "urn:uuid:9e9da6c8-1353-16d9-537a-64d64fa66569",
      "resource": {
        "resourceType": "Observation",
        "id": "9e9da6c8-1353-16d9-537a-64d64fa66569",
        "meta": {
          "profile": [
            "http://hl7.org/fhir/us/core/StructureDefinition/us-core-observationresults"
          ],
          "source": [
            "ecr"
          ]
        },
        "identifier": [
          {
            "system": "urn:oid:2.16.840.1.113883",
            "value": "https://fhir-ehr.cerner.com/r4/da0b5d99-573c-4f5e-aaf6-8d39fa93d033/Observation/M-19366214842/_history/1"
          }
        ],
        "category": [
          {
            "coding": [
              {
                "system": "http://terminology.hl7.org/CodeSystem/observation-category",
                "code": "laboratory"
              }
            ]
          }
        ],
        "status": "final",
        "code": {
          "coding": [
            {
              "code": "5769-5",
              "system": "http://loinc.org"
            }
          ]
        },
        "effectiveDateTime": "2022-04-28T15:52:00Z",
        "valueCodeableConcept": {
          "coding": [
            {
              "code": "260413007",
              "display": "None (qualifier value)",
              "system": "http://snomed.info/sct"
            }
          ]
        },
        "interpretation": [
          {
            "coding": [
              {
                "code": "N",
                "display": "Normal",
                "system": "http://terminology.hl7.org/CodeSystem/v3-ObservationInterpretation"
              }
            ]
          }
        ],
        "subject": {
          "reference": "Patient/2dde8c35-e57c-4f3e-a77c-39e144e9deda"
        }
      },
      "request": {
        "method": "PUT",
        "url": "Observation/9e9da6c8-1353-16d9-537a-64d64fa66569"
      }
    },
    {
      "fullUrl": "urn:uuid:9f2adc8e-bbb8-c3f5-c19d-86d48e70357b",
      "resource": {
        "resourceType": "DiagnosticReport",
        "id": "9f2adc8e-bbb8-c3f5-c19d-86d48e70357b",
        "identifier": [
          {
            "system": "urn:ietf:rfc:3986",
            "value": "urn:uuid:55796d06-d940-4b62-81ea-b25cc73dccad"
          }
        ],
        "status": "final",
        "code": {
          "coding": [
            {
              "code": "32167-9",
              "system": "http://loinc.org"
            }
          ]
        },
        "subject": {
          "reference": "Patient/2dde8c35-e57c-4f3e-a77c-39e144e9deda"
        },
        "result": [
          {
            "reference": "Observation/dc958589-11ea-a231-4394-24e9e79c4423"
          }
        ],
        "meta": {
          "source": [
            "ecr"
          ]
        }
      },
      "request": {
        "method": "PUT",
        "url": "DiagnosticReport/9f2adc8e-bbb8-c3f5-c19d-86d48e70357b"
      }
    },
    {
      "fullUrl": "urn:uuid:dc958589-11ea-a231-4394-24e9e79c4423",
      "resource": {
        "resourceType": "Observation",
        "id": "dc958589-11ea-a231-4394-24e9e79c4423",
        "meta": {
          "profile": [
            "http://hl7.org/fhir/us/core/StructureDefinition/us-core-observationresults"
          ],
          "source": [
            "ecr"
          ]
        },
        "identifier": [
          {
            "system": "urn:oid:2.16.840.1.113883",
            "value": "https://fhir-ehr.cerner.com/r4/da0b5d99-573c-4f5e-aaf6-8d39fa93d033/Observation/M-19366214793/_history/1"
          }
        ],
        "category": [
          {
            "coding": [
              {
                "system": "http://terminology.hl7.org/CodeSystem/observation-category",
                "code": "laboratory"
              }
            ]
          }
        ],
        "status": "final",
        "code": {
          "coding": [
            {
              "code": "32167-9",
              "system": "http://loinc.org"
            }
          ]
        },
        "effectiveDateTime": "2022-04-28T15:52:00Z",
        "interpretation": [
          {
            "coding": [
              {
                "code": "N",
                "display": "Normal",
                "system": "http://terminology.hl7.org/CodeSystem/v3-ObservationInterpretation"
              }
            ]
          }
        ],
        "subject": {
          "reference": "Patient/2dde8c35-e57c-4f3e-a77c-39e144e9deda"
        }
      },
      "request": {
        "method": "PUT",
        "url": "Observation/dc958589-11ea-a231-4394-24e9e79c4423"
      }
    },
    {
      "fullUrl": "urn:uuid:bb645a81-34ee-027a-5e79-95eddfcd6efa",
      "resource": {
        "resourceType": "DiagnosticReport",
        "id": "bb645a81-34ee-027a-5e79-95eddfcd6efa",
        "identifier": [
          {
            "system": "urn:ietf:rfc:3986",
            "value": "urn:uuid:a9fc9394-c1ce-48d2-824d-5b0683e2fdb2"
          }
        ],
        "status": "final",
        "code": {
          "coding": [
            {
              "code": "2112-1",
              "system": "http://loinc.org"
            }
          ]
        },
        "subject": {
          "reference": "Patient/2dde8c35-e57c-4f3e-a77c-39e144e9deda"
        },
        "result": [
          {
            "reference": "Observation/61a2c2cd-b4b9-c55f-475b-3fe9bf941ff2"
          }
        ],
        "meta": {
          "source": [
            "ecr"
          ]
        }
      },
      "request": {
        "method": "PUT",
        "url": "DiagnosticReport/bb645a81-34ee-027a-5e79-95eddfcd6efa"
      }
    },
    {
      "fullUrl": "urn:uuid:61a2c2cd-b4b9-c55f-475b-3fe9bf941ff2",
      "resource": {
        "resourceType": "Observation",
        "id": "61a2c2cd-b4b9-c55f-475b-3fe9bf941ff2",
        "meta": {
          "profile": [
            "http://hl7.org/fhir/us/core/StructureDefinition/us-core-observationresults"
          ],
          "source": [
            "ecr"
          ]
        },
        "identifier": [
          {
            "system": "urn:oid:2.16.840.1.113883",
            "value": "https://fhir-ehr.cerner.com/r4/da0b5d99-573c-4f5e-aaf6-8d39fa93d033/Observation/M-19365854960/_history/1"
          }
        ],
        "category": [
          {
            "coding": [
              {
                "system": "http://terminology.hl7.org/CodeSystem/observation-category",
                "code": "laboratory"
              }
            ]
          }
        ],
        "status": "final",
        "code": {
          "coding": [
            {
              "code": "2112-1",
              "system": "http://loinc.org"
            }
          ]
        },
        "effectiveDateTime": "2022-04-28T15:32:00Z",
        "valueCodeableConcept": {
          "coding": [
            {
              "code": "260385009",
              "display": "Negative (qualifier value)",
              "system": "http://snomed.info/sct"
            }
          ]
        },
        "interpretation": [
          {
            "coding": [
              {
                "code": "N",
                "display": "Normal",
                "system": "http://terminology.hl7.org/CodeSystem/v3-ObservationInterpretation"
              }
            ]
          }
        ],
        "subject": {
          "reference": "Patient/2dde8c35-e57c-4f3e-a77c-39e144e9deda"
        }
      },
      "request": {
        "method": "PUT",
        "url": "Observation/61a2c2cd-b4b9-c55f-475b-3fe9bf941ff2"
      }
    },
    {
      "fullUrl": "urn:uuid:b1b48a6d-8568-07ac-80fc-fbb6590fd2f0",
      "resource": {
        "resourceType": "DiagnosticReport",
        "id": "b1b48a6d-8568-07ac-80fc-fbb6590fd2f0",
        "identifier": [
          {
            "system": "urn:ietf:rfc:3986",
            "value": "urn:uuid:8bd2cf23-f30b-46bb-9903-6cdcb9eb292e"
          }
        ],
        "status": "final",
        "code": {
          "coding": [
            {
              "code": "5803-2",
              "system": "http://loinc.org"
            }
          ]
        },
        "subject": {
          "reference": "Patient/2dde8c35-e57c-4f3e-a77c-39e144e9deda"
        },
        "result": [
          {
            "reference": "Observation/d0012c42-a58d-ea15-143a-4f61999754de"
          }
        ],
        "meta": {
          "source": [
            "ecr"
          ]
        }
      },
      "request": {
        "method": "PUT",
        "url": "DiagnosticReport/b1b48a6d-8568-07ac-80fc-fbb6590fd2f0"
      }
    },
    {
      "fullUrl": "urn:uuid:d0012c42-a58d-ea15-143a-4f61999754de",
      "resource": {
        "resourceType": "Observation",
        "id": "d0012c42-a58d-ea15-143a-4f61999754de",
        "meta": {
          "profile": [
            "http://hl7.org/fhir/us/core/StructureDefinition/us-core-observationresults"
          ],
          "source": [
            "ecr"
          ]
        },
        "identifier": [
          {
            "system": "urn:oid:2.16.840.1.113883",
            "value": "https://fhir-ehr.cerner.com/r4/da0b5d99-573c-4f5e-aaf6-8d39fa93d033/Observation/M-19365558043/_history/1"
          }
        ],
        "category": [
          {
            "coding": [
              {
                "system": "http://terminology.hl7.org/CodeSystem/observation-category",
                "code": "laboratory"
              }
            ]
          }
        ],
        "status": "final",
        "code": {
          "coding": [
            {
              "code": "5803-2",
              "system": "http://loinc.org"
            }
          ]
        },
        "effectiveDateTime": "2022-04-28T15:07:00Z",
        "valueCodeableConcept": {
          "coding": [
            {
              "code": "732769006",
              "display": "5.5",
              "system": "http://snomed.info/sct"
            }
          ]
        },
        "subject": {
          "reference": "Patient/2dde8c35-e57c-4f3e-a77c-39e144e9deda"
        }
      },
      "request": {
        "method": "PUT",
        "url": "Observation/d0012c42-a58d-ea15-143a-4f61999754de"
      }
    },
    {
      "fullUrl": "urn:uuid:a8a2941f-78e6-4ada-c9a8-aeaf3dd30b25",
      "resource": {
        "resourceType": "DiagnosticReport",
        "id": "a8a2941f-78e6-4ada-c9a8-aeaf3dd30b25",
        "identifier": [
          {
            "system": "urn:ietf:rfc:3986",
            "value": "urn:uuid:1a614057-4829-4689-b28e-d4c47dede41d"
          }
        ],
        "status": "final",
        "code": {
          "coding": [
            {
              "code": "2965-2",
              "system": "http://loinc.org"
            }
          ]
        },
        "subject": {
          "reference": "Patient/2dde8c35-e57c-4f3e-a77c-39e144e9deda"
        },
        "result": [
          {
            "reference": "Observation/02b419b6-867d-f477-34f0-40e50bc4da63"
          }
        ],
        "meta": {
          "source": [
            "ecr"
          ]
        }
      },
      "request": {
        "method": "PUT",
        "url": "DiagnosticReport/a8a2941f-78e6-4ada-c9a8-aeaf3dd30b25"
      }
    },
    {
      "fullUrl": "urn:uuid:02b419b6-867d-f477-34f0-40e50bc4da63",
      "resource": {
        "resourceType": "Observation",
        "id": "02b419b6-867d-f477-34f0-40e50bc4da63",
        "meta": {
          "profile": [
            "http://hl7.org/fhir/us/core/StructureDefinition/us-core-observationresults"
          ],
          "source": [
            "ecr"
          ]
        },
        "identifier": [
          {
            "system": "urn:oid:2.16.840.1.113883",
            "value": "https://fhir-ehr.cerner.com/r4/da0b5d99-573c-4f5e-aaf6-8d39fa93d033/Observation/M-19365558041/_history/1"
          }
        ],
        "category": [
          {
            "coding": [
              {
                "system": "http://terminology.hl7.org/CodeSystem/observation-category",
                "code": "laboratory"
              }
            ]
          }
        ],
        "status": "final",
        "code": {
          "coding": [
            {
              "code": "2965-2",
              "system": "http://loinc.org"
            }
          ]
        },
        "effectiveDateTime": "2022-04-28T15:07:00Z",
        "subject": {
          "reference": "Patient/2dde8c35-e57c-4f3e-a77c-39e144e9deda"
        }
      },
      "request": {
        "method": "PUT",
        "url": "Observation/02b419b6-867d-f477-34f0-40e50bc4da63"
      }
    },
    {
      "fullUrl": "urn:uuid:a1bdc715-4c25-032e-be7f-f066506e0c7c",
      "resource": {
        "resourceType": "DiagnosticReport",
        "id": "a1bdc715-4c25-032e-be7f-f066506e0c7c",
        "identifier": [
          {
            "system": "urn:ietf:rfc:3986",
            "value": "urn:uuid:64f3ba55-7d10-4c17-bc09-818dad306c9c"
          }
        ],
        "status": "final",
        "code": {
          "coding": [
            {
              "code": "19161-9",
              "system": "http://loinc.org"
            }
          ]
        },
        "subject": {
          "reference": "Patient/2dde8c35-e57c-4f3e-a77c-39e144e9deda"
        },
        "result": [
          {
            "reference": "Observation/9128e596-d61b-cf36-9969-40d8c0831a79"
          }
        ],
        "meta": {
          "source": [
            "ecr"
          ]
        }
      },
      "request": {
        "method": "PUT",
        "url": "DiagnosticReport/a1bdc715-4c25-032e-be7f-f066506e0c7c"
      }
    },
    {
      "fullUrl": "urn:uuid:9128e596-d61b-cf36-9969-40d8c0831a79",
      "resource": {
        "resourceType": "Observation",
        "id": "9128e596-d61b-cf36-9969-40d8c0831a79",
        "meta": {
          "profile": [
            "http://hl7.org/fhir/us/core/StructureDefinition/us-core-observationresults"
          ],
          "source": [
            "ecr"
          ]
        },
        "identifier": [
          {
            "system": "urn:oid:2.16.840.1.113883",
            "value": "https://fhir-ehr.cerner.com/r4/da0b5d99-573c-4f5e-aaf6-8d39fa93d033/Observation/M-19365558053/_history/1"
          }
        ],
        "category": [
          {
            "coding": [
              {
                "system": "http://terminology.hl7.org/CodeSystem/observation-category",
                "code": "laboratory"
              }
            ]
          }
        ],
        "status": "final",
        "code": {
          "coding": [
            {
              "code": "19161-9",
              "system": "http://loinc.org"
            }
          ]
        },
        "effectiveDateTime": "2022-04-28T15:07:00Z",
        "valueCodeableConcept": {
          "coding": [
            {
              "code": "732349004",
              "display": "0.2",
              "system": "http://snomed.info/sct"
            }
          ]
        },
        "interpretation": [
          {
            "coding": [
              {
                "code": "N",
                "display": "Normal",
                "system": "http://terminology.hl7.org/CodeSystem/v3-ObservationInterpretation"
              }
            ]
          }
        ],
        "subject": {
          "reference": "Patient/2dde8c35-e57c-4f3e-a77c-39e144e9deda"
        }
      },
      "request": {
        "method": "PUT",
        "url": "Observation/9128e596-d61b-cf36-9969-40d8c0831a79"
      }
    },
    {
      "fullUrl": "urn:uuid:7e9a0bbd-9136-e176-232b-0845b0631bce",
      "resource": {
        "resourceType": "DiagnosticReport",
        "id": "7e9a0bbd-9136-e176-232b-0845b0631bce",
        "identifier": [
          {
            "system": "urn:ietf:rfc:3986",
            "value": "urn:uuid:00ed6d38-d4f8-4389-9394-d3bd02de9d5a"
          }
        ],
        "status": "final",
        "code": {
          "coding": [
            {
              "code": "725-2",
              "system": "http://loinc.org"
            }
          ]
        },
        "subject": {
          "reference": "Patient/2dde8c35-e57c-4f3e-a77c-39e144e9deda"
        },
        "result": [
          {
            "reference": "Observation/93568214-3d75-3338-f6d0-373f13c5a4bd"
          }
        ],
        "meta": {
          "source": [
            "ecr"
          ]
        }
      },
      "request": {
        "method": "PUT",
        "url": "DiagnosticReport/7e9a0bbd-9136-e176-232b-0845b0631bce"
      }
    },
    {
      "fullUrl": "urn:uuid:93568214-3d75-3338-f6d0-373f13c5a4bd",
      "resource": {
        "resourceType": "Observation",
        "id": "93568214-3d75-3338-f6d0-373f13c5a4bd",
        "meta": {
          "profile": [
            "http://hl7.org/fhir/us/core/StructureDefinition/us-core-observationresults"
          ],
          "source": [
            "ecr"
          ]
        },
        "identifier": [
          {
            "system": "urn:oid:2.16.840.1.113883",
            "value": "https://fhir-ehr.cerner.com/r4/da0b5d99-573c-4f5e-aaf6-8d39fa93d033/Observation/M-19365558051/_history/1"
          }
        ],
        "category": [
          {
            "coding": [
              {
                "system": "http://terminology.hl7.org/CodeSystem/observation-category",
                "code": "laboratory"
              }
            ]
          }
        ],
        "status": "final",
        "code": {
          "coding": [
            {
              "code": "725-2",
              "system": "http://loinc.org"
            }
          ]
        },
        "effectiveDateTime": "2022-04-28T15:07:00Z",
        "valueString": "Trace-lysed",
        "subject": {
          "reference": "Patient/2dde8c35-e57c-4f3e-a77c-39e144e9deda"
        }
      },
      "request": {
        "method": "PUT",
        "url": "Observation/93568214-3d75-3338-f6d0-373f13c5a4bd"
      }
    },
    {
      "fullUrl": "urn:uuid:0e5fbc8d-817b-ce57-3688-b3658451359d",
      "resource": {
        "resourceType": "DiagnosticReport",
        "id": "0e5fbc8d-817b-ce57-3688-b3658451359d",
        "identifier": [
          {
            "system": "urn:ietf:rfc:3986",
            "value": "urn:uuid:224dc9ef-804a-4afd-8779-9c1068f42ffb"
          }
        ],
        "status": "final",
        "code": {
          "coding": [
            {
              "code": "1977-8",
              "system": "http://loinc.org"
            }
          ]
        },
        "subject": {
          "reference": "Patient/2dde8c35-e57c-4f3e-a77c-39e144e9deda"
        },
        "result": [
          {
            "reference": "Observation/1f70ffb7-c091-018e-9d41-5812e900af02"
          }
        ],
        "meta": {
          "source": [
            "ecr"
          ]
        }
      },
      "request": {
        "method": "PUT",
        "url": "DiagnosticReport/0e5fbc8d-817b-ce57-3688-b3658451359d"
      }
    },
    {
      "fullUrl": "urn:uuid:1f70ffb7-c091-018e-9d41-5812e900af02",
      "resource": {
        "resourceType": "Observation",
        "id": "1f70ffb7-c091-018e-9d41-5812e900af02",
        "meta": {
          "profile": [
            "http://hl7.org/fhir/us/core/StructureDefinition/us-core-observationresults"
          ],
          "source": [
            "ecr"
          ]
        },
        "identifier": [
          {
            "system": "urn:oid:2.16.840.1.113883",
            "value": "https://fhir-ehr.cerner.com/r4/da0b5d99-573c-4f5e-aaf6-8d39fa93d033/Observation/M-19365558047/_history/1"
          }
        ],
        "category": [
          {
            "coding": [
              {
                "system": "http://terminology.hl7.org/CodeSystem/observation-category",
                "code": "laboratory"
              }
            ]
          }
        ],
        "status": "final",
        "code": {
          "coding": [
            {
              "code": "1977-8",
              "system": "http://loinc.org"
            }
          ]
        },
        "effectiveDateTime": "2022-04-28T15:07:00Z",
        "interpretation": [
          {
            "coding": [
              {
                "code": "N",
                "display": "Normal",
                "system": "http://terminology.hl7.org/CodeSystem/v3-ObservationInterpretation"
              }
            ]
          }
        ],
        "subject": {
          "reference": "Patient/2dde8c35-e57c-4f3e-a77c-39e144e9deda"
        }
      },
      "request": {
        "method": "PUT",
        "url": "Observation/1f70ffb7-c091-018e-9d41-5812e900af02"
      }
    },
    {
      "fullUrl": "urn:uuid:cf51e490-4738-2cce-d716-c2cfa8242c60",
      "resource": {
        "resourceType": "DiagnosticReport",
        "id": "cf51e490-4738-2cce-d716-c2cfa8242c60",
        "identifier": [
          {
            "system": "urn:ietf:rfc:3986",
            "value": "urn:uuid:b277de6f-6d2f-442e-913a-7854454f16ee"
          }
        ],
        "status": "final",
        "code": {
          "coding": [
            {
              "code": "5799-2",
              "system": "http://loinc.org"
            }
          ]
        },
        "subject": {
          "reference": "Patient/2dde8c35-e57c-4f3e-a77c-39e144e9deda"
        },
        "result": [
          {
            "reference": "Observation/48b9c8ee-0daa-2d3c-1a42-ae8a14bda7ef"
          }
        ],
        "meta": {
          "source": [
            "ecr"
          ]
        }
      },
      "request": {
        "method": "PUT",
        "url": "DiagnosticReport/cf51e490-4738-2cce-d716-c2cfa8242c60"
      }
    },
    {
      "fullUrl": "urn:uuid:48b9c8ee-0daa-2d3c-1a42-ae8a14bda7ef",
      "resource": {
        "resourceType": "Observation",
        "id": "48b9c8ee-0daa-2d3c-1a42-ae8a14bda7ef",
        "meta": {
          "profile": [
            "http://hl7.org/fhir/us/core/StructureDefinition/us-core-observationresults"
          ],
          "source": [
            "ecr"
          ]
        },
        "identifier": [
          {
            "system": "urn:oid:2.16.840.1.113883",
            "value": "https://fhir-ehr.cerner.com/r4/da0b5d99-573c-4f5e-aaf6-8d39fa93d033/Observation/M-19365558045/_history/1"
          }
        ],
        "category": [
          {
            "coding": [
              {
                "system": "http://terminology.hl7.org/CodeSystem/observation-category",
                "code": "laboratory"
              }
            ]
          }
        ],
        "status": "final",
        "code": {
          "coding": [
            {
              "code": "5799-2",
              "system": "http://loinc.org"
            }
          ]
        },
        "effectiveDateTime": "2022-04-28T15:07:00Z",
        "valueCodeableConcept": {
          "coding": [
            {
              "code": "260405006",
              "display": "Trace (qualifier value)",
              "system": "http://snomed.info/sct"
            }
          ]
        },
        "interpretation": [
          {
            "coding": [
              {
                "code": "A",
                "display": "Abnormal",
                "system": "http://terminology.hl7.org/CodeSystem/v3-ObservationInterpretation"
              }
            ]
          }
        ],
        "subject": {
          "reference": "Patient/2dde8c35-e57c-4f3e-a77c-39e144e9deda"
        }
      },
      "request": {
        "method": "PUT",
        "url": "Observation/48b9c8ee-0daa-2d3c-1a42-ae8a14bda7ef"
      }
    },
    {
      "fullUrl": "urn:uuid:07966024-98de-b734-45db-48e1c86f5544",
      "resource": {
        "resourceType": "DiagnosticReport",
        "id": "07966024-98de-b734-45db-48e1c86f5544",
        "identifier": [
          {
            "system": "urn:ietf:rfc:3986",
            "value": "urn:uuid:4967afec-88af-44d9-92ba-d6e0f05c8415"
          }
        ],
        "status": "final",
        "code": {
          "coding": [
            {
              "code": "5804-0",
              "system": "http://loinc.org"
            }
          ]
        },
        "subject": {
          "reference": "Patient/2dde8c35-e57c-4f3e-a77c-39e144e9deda"
        },
        "result": [
          {
            "reference": "Observation/cf261377-aff1-e12c-e94e-0b613ff43965"
          }
        ],
        "meta": {
          "source": [
            "ecr"
          ]
        }
      },
      "request": {
        "method": "PUT",
        "url": "DiagnosticReport/07966024-98de-b734-45db-48e1c86f5544"
      }
    },
    {
      "fullUrl": "urn:uuid:cf261377-aff1-e12c-e94e-0b613ff43965",
      "resource": {
        "resourceType": "Observation",
        "id": "cf261377-aff1-e12c-e94e-0b613ff43965",
        "meta": {
          "profile": [
            "http://hl7.org/fhir/us/core/StructureDefinition/us-core-observationresults"
          ],
          "source": [
            "ecr"
          ]
        },
        "identifier": [
          {
            "system": "urn:oid:2.16.840.1.113883",
            "value": "https://fhir-ehr.cerner.com/r4/da0b5d99-573c-4f5e-aaf6-8d39fa93d033/Observation/M-19365558039/_history/1"
          }
        ],
        "category": [
          {
            "coding": [
              {
                "system": "http://terminology.hl7.org/CodeSystem/observation-category",
                "code": "laboratory"
              }
            ]
          }
        ],
        "status": "final",
        "code": {
          "coding": [
            {
              "code": "5804-0",
              "system": "http://loinc.org"
            }
          ]
        },
        "effectiveDateTime": "2022-04-28T15:07:00Z",
        "interpretation": [
          {
            "coding": [
              {
                "code": "N",
                "display": "Normal",
                "system": "http://terminology.hl7.org/CodeSystem/v3-ObservationInterpretation"
              }
            ]
          }
        ],
        "subject": {
          "reference": "Patient/2dde8c35-e57c-4f3e-a77c-39e144e9deda"
        }
      },
      "request": {
        "method": "PUT",
        "url": "Observation/cf261377-aff1-e12c-e94e-0b613ff43965"
      }
    },
    {
      "fullUrl": "urn:uuid:9c8bc8dd-76ea-be3a-641d-e7a5603513ae",
      "resource": {
        "resourceType": "DiagnosticReport",
        "id": "9c8bc8dd-76ea-be3a-641d-e7a5603513ae",
        "identifier": [
          {
            "system": "urn:ietf:rfc:3986",
            "value": "urn:uuid:ef3b5651-1f25-4697-b8bf-bebaf855a12f"
          }
        ],
        "status": "final",
        "code": {
          "coding": [
            {
              "code": "5802-4",
              "system": "http://loinc.org"
            }
          ]
        },
        "subject": {
          "reference": "Patient/2dde8c35-e57c-4f3e-a77c-39e144e9deda"
        },
        "result": [
          {
            "reference": "Observation/c0615b66-8027-49a6-9166-2061028b5e07"
          }
        ],
        "meta": {
          "source": [
            "ecr"
          ]
        }
      },
      "request": {
        "method": "PUT",
        "url": "DiagnosticReport/9c8bc8dd-76ea-be3a-641d-e7a5603513ae"
      }
    },
    {
      "fullUrl": "urn:uuid:c0615b66-8027-49a6-9166-2061028b5e07",
      "resource": {
        "resourceType": "Observation",
        "id": "c0615b66-8027-49a6-9166-2061028b5e07",
        "meta": {
          "profile": [
            "http://hl7.org/fhir/us/core/StructureDefinition/us-core-observationresults"
          ],
          "source": [
            "ecr"
          ]
        },
        "identifier": [
          {
            "system": "urn:oid:2.16.840.1.113883",
            "value": "https://fhir-ehr.cerner.com/r4/da0b5d99-573c-4f5e-aaf6-8d39fa93d033/Observation/M-19365558037/_history/1"
          }
        ],
        "category": [
          {
            "coding": [
              {
                "system": "http://terminology.hl7.org/CodeSystem/observation-category",
                "code": "laboratory"
              }
            ]
          }
        ],
        "status": "final",
        "code": {
          "coding": [
            {
              "code": "5802-4",
              "system": "http://loinc.org"
            }
          ]
        },
        "effectiveDateTime": "2022-04-28T15:07:00Z",
        "interpretation": [
          {
            "coding": [
              {
                "code": "N",
                "display": "Normal",
                "system": "http://terminology.hl7.org/CodeSystem/v3-ObservationInterpretation"
              }
            ]
          }
        ],
        "subject": {
          "reference": "Patient/2dde8c35-e57c-4f3e-a77c-39e144e9deda"
        }
      },
      "request": {
        "method": "PUT",
        "url": "Observation/c0615b66-8027-49a6-9166-2061028b5e07"
      }
    },
    {
      "fullUrl": "urn:uuid:bf7ccd14-a7e9-4c46-27f2-8fdecf6a789b",
      "resource": {
        "resourceType": "DiagnosticReport",
        "id": "bf7ccd14-a7e9-4c46-27f2-8fdecf6a789b",
        "identifier": [
          {
            "system": "urn:ietf:rfc:3986",
            "value": "urn:uuid:b8cc4a8f-7cfe-491e-911b-f03550b8760f"
          }
        ],
        "status": "final",
        "code": {
          "coding": [
            {
              "code": "33903-6",
              "system": "http://loinc.org"
            }
          ]
        },
        "subject": {
          "reference": "Patient/2dde8c35-e57c-4f3e-a77c-39e144e9deda"
        },
        "result": [
          {
            "reference": "Observation/a280d559-d10e-2411-60fb-5b36ff5ec97e"
          }
        ],
        "meta": {
          "source": [
            "ecr"
          ]
        }
      },
      "request": {
        "method": "PUT",
        "url": "DiagnosticReport/bf7ccd14-a7e9-4c46-27f2-8fdecf6a789b"
      }
    },
    {
      "fullUrl": "urn:uuid:a280d559-d10e-2411-60fb-5b36ff5ec97e",
      "resource": {
        "resourceType": "Observation",
        "id": "a280d559-d10e-2411-60fb-5b36ff5ec97e",
        "meta": {
          "profile": [
            "http://hl7.org/fhir/us/core/StructureDefinition/us-core-observationresults"
          ],
          "source": [
            "ecr"
          ]
        },
        "identifier": [
          {
            "system": "urn:oid:2.16.840.1.113883",
            "value": "https://fhir-ehr.cerner.com/r4/da0b5d99-573c-4f5e-aaf6-8d39fa93d033/Observation/M-19365558035/_history/1"
          }
        ],
        "category": [
          {
            "coding": [
              {
                "system": "http://terminology.hl7.org/CodeSystem/observation-category",
                "code": "laboratory"
              }
            ]
          }
        ],
        "status": "final",
        "code": {
          "coding": [
            {
              "code": "33903-6",
              "system": "http://loinc.org"
            }
          ]
        },
        "effectiveDateTime": "2022-04-28T15:07:00Z",
        "interpretation": [
          {
            "coding": [
              {
                "code": "N",
                "display": "Normal",
                "system": "http://terminology.hl7.org/CodeSystem/v3-ObservationInterpretation"
              }
            ]
          }
        ],
        "subject": {
          "reference": "Patient/2dde8c35-e57c-4f3e-a77c-39e144e9deda"
        }
      },
      "request": {
        "method": "PUT",
        "url": "Observation/a280d559-d10e-2411-60fb-5b36ff5ec97e"
      }
    },
    {
      "fullUrl": "urn:uuid:2435733d-a65d-6468-2b5d-3117137bc649",
      "resource": {
        "resourceType": "DiagnosticReport",
        "id": "2435733d-a65d-6468-2b5d-3117137bc649",
        "identifier": [
          {
            "system": "urn:ietf:rfc:3986",
            "value": "urn:uuid:a1a9556d-601b-49c7-b259-050bc560ad95"
          }
        ],
        "status": "final",
        "code": {
          "coding": [
            {
              "code": "2350-7",
              "system": "http://loinc.org"
            }
          ]
        },
        "subject": {
          "reference": "Patient/2dde8c35-e57c-4f3e-a77c-39e144e9deda"
        },
        "result": [
          {
            "reference": "Observation/ce871873-5968-fbe4-5ee6-d9bfbd12eec7"
          }
        ],
        "meta": {
          "source": [
            "ecr"
          ]
        }
      },
      "request": {
        "method": "PUT",
        "url": "DiagnosticReport/2435733d-a65d-6468-2b5d-3117137bc649"
      }
    },
    {
      "fullUrl": "urn:uuid:ce871873-5968-fbe4-5ee6-d9bfbd12eec7",
      "resource": {
        "resourceType": "Observation",
        "id": "ce871873-5968-fbe4-5ee6-d9bfbd12eec7",
        "meta": {
          "profile": [
            "http://hl7.org/fhir/us/core/StructureDefinition/us-core-observationresults"
          ],
          "source": [
            "ecr"
          ]
        },
        "identifier": [
          {
            "system": "urn:oid:2.16.840.1.113883",
            "value": "https://fhir-ehr.cerner.com/r4/da0b5d99-573c-4f5e-aaf6-8d39fa93d033/Observation/M-19365558033/_history/1"
          }
        ],
        "category": [
          {
            "coding": [
              {
                "system": "http://terminology.hl7.org/CodeSystem/observation-category",
                "code": "laboratory"
              }
            ]
          }
        ],
        "status": "final",
        "code": {
          "coding": [
            {
              "code": "2350-7",
              "system": "http://loinc.org"
            }
          ]
        },
        "effectiveDateTime": "2022-04-28T15:07:00Z",
        "interpretation": [
          {
            "coding": [
              {
                "code": "N",
                "display": "Normal",
                "system": "http://terminology.hl7.org/CodeSystem/v3-ObservationInterpretation"
              }
            ]
          }
        ],
        "subject": {
          "reference": "Patient/2dde8c35-e57c-4f3e-a77c-39e144e9deda"
        }
      },
      "request": {
        "method": "PUT",
        "url": "Observation/ce871873-5968-fbe4-5ee6-d9bfbd12eec7"
      }
    },
    {
      "fullUrl": "urn:uuid:fdaedbe3-0c7b-e1aa-cc8e-b2a530a74592",
      "resource": {
        "resourceType": "DiagnosticReport",
        "id": "fdaedbe3-0c7b-e1aa-cc8e-b2a530a74592",
        "identifier": [
          {
            "system": "urn:ietf:rfc:3986",
            "value": "urn:uuid:71bd5f22-575e-4429-993d-e390e8928308"
          }
        ],
        "status": "final",
        "code": {
          "coding": [
            {
              "code": "35592-5",
              "system": "http://loinc.org"
            }
          ]
        },
        "subject": {
          "reference": "Patient/2dde8c35-e57c-4f3e-a77c-39e144e9deda"
        },
        "result": [
          {
            "reference": "Observation/f01c4359-8647-51fb-08d9-78e9909f464e"
          }
        ],
        "meta": {
          "source": [
            "ecr"
          ]
        }
      },
      "request": {
        "method": "PUT",
        "url": "DiagnosticReport/fdaedbe3-0c7b-e1aa-cc8e-b2a530a74592"
      }
    },
    {
      "fullUrl": "urn:uuid:f01c4359-8647-51fb-08d9-78e9909f464e",
      "resource": {
        "resourceType": "Observation",
        "id": "f01c4359-8647-51fb-08d9-78e9909f464e",
        "meta": {
          "profile": [
            "http://hl7.org/fhir/us/core/StructureDefinition/us-core-observationresults"
          ],
          "source": [
            "ecr"
          ]
        },
        "identifier": [
          {
            "system": "urn:oid:2.16.840.1.113883",
            "value": "https://fhir-ehr.cerner.com/r4/da0b5d99-573c-4f5e-aaf6-8d39fa93d033/Observation/M-19362464926/_history/1"
          }
        ],
        "category": [
          {
            "coding": [
              {
                "system": "http://terminology.hl7.org/CodeSystem/observation-category",
                "code": "laboratory"
              }
            ]
          }
        ],
        "status": "final",
        "code": {
          "coding": [
            {
              "code": "35592-5",
              "system": "http://loinc.org"
            }
          ]
        },
        "effectiveDateTime": "2022-04-28T02:09:20Z",
        "valueQuantity": {
          "value": 55.01,
          "unit": "mL/min"
        },
        "subject": {
          "reference": "Patient/2dde8c35-e57c-4f3e-a77c-39e144e9deda"
        }
      },
      "request": {
        "method": "PUT",
        "url": "Observation/f01c4359-8647-51fb-08d9-78e9909f464e"
      }
    },
    {
      "fullUrl": "urn:uuid:ac8a0257-9383-8cf5-ae96-6f7cc5a2cbe3",
      "resource": {
        "resourceType": "DiagnosticReport",
        "id": "ac8a0257-9383-8cf5-ae96-6f7cc5a2cbe3",
        "identifier": [
          {
            "system": "urn:ietf:rfc:3986",
            "value": "urn:uuid:a1b25c89-000a-4333-a307-72a9e1b23110"
          }
        ],
        "status": "final",
        "code": {
          "coding": [
            {
              "code": "10839-9",
              "system": "http://loinc.org"
            }
          ]
        },
        "subject": {
          "reference": "Patient/2dde8c35-e57c-4f3e-a77c-39e144e9deda"
        },
        "result": [
          {
            "reference": "Observation/c58b0595-6769-ddc4-d1ee-d2d12834dca9"
          }
        ],
        "meta": {
          "source": [
            "ecr"
          ]
        }
      },
      "request": {
        "method": "PUT",
        "url": "DiagnosticReport/ac8a0257-9383-8cf5-ae96-6f7cc5a2cbe3"
      }
    },
    {
      "fullUrl": "urn:uuid:c58b0595-6769-ddc4-d1ee-d2d12834dca9",
      "resource": {
        "resourceType": "Observation",
        "id": "c58b0595-6769-ddc4-d1ee-d2d12834dca9",
        "meta": {
          "profile": [
            "http://hl7.org/fhir/us/core/StructureDefinition/us-core-observationresults"
          ],
          "source": [
            "ecr"
          ]
        },
        "identifier": [
          {
            "system": "urn:oid:2.16.840.1.113883",
            "value": "https://fhir-ehr.cerner.com/r4/da0b5d99-573c-4f5e-aaf6-8d39fa93d033/Observation/M-19362460745/_history/1"
          }
        ],
        "category": [
          {
            "coding": [
              {
                "system": "http://terminology.hl7.org/CodeSystem/observation-category",
                "code": "laboratory"
              }
            ]
          }
        ],
        "status": "final",
        "code": {
          "coding": [
            {
              "code": "10839-9",
              "system": "http://loinc.org"
            }
          ]
        },
        "effectiveDateTime": "2022-04-28T01:22:00Z",
        "valueQuantity": {
          "value": 4.2,
          "unit": "ng/L"
        },
        "interpretation": [
          {
            "coding": [
              {
                "code": "N",
                "display": "Normal",
                "system": "http://terminology.hl7.org/CodeSystem/v3-ObservationInterpretation"
              }
            ]
          }
        ],
        "subject": {
          "reference": "Patient/2dde8c35-e57c-4f3e-a77c-39e144e9deda"
        }
      },
      "request": {
        "method": "PUT",
        "url": "Observation/c58b0595-6769-ddc4-d1ee-d2d12834dca9"
      }
    },
    {
      "fullUrl": "urn:uuid:077312d9-20fb-f401-8cd7-fd207bf14a5f",
      "resource": {
        "resourceType": "DiagnosticReport",
        "id": "077312d9-20fb-f401-8cd7-fd207bf14a5f",
        "identifier": [
          {
            "system": "urn:ietf:rfc:3986",
            "value": "urn:uuid:7c69b480-7047-4258-aa33-1e0a13737bea"
          }
        ],
        "status": "final",
        "code": {
          "coding": [
            {
              "code": "50384-7",
              "system": "http://loinc.org"
            }
          ]
        },
        "subject": {
          "reference": "Patient/2dde8c35-e57c-4f3e-a77c-39e144e9deda"
        },
        "result": [
          {
            "reference": "Observation/2fe3e216-98bb-3227-1de5-abeff5203e35"
          }
        ],
        "meta": {
          "source": [
            "ecr"
          ]
        }
      },
      "request": {
        "method": "PUT",
        "url": "DiagnosticReport/077312d9-20fb-f401-8cd7-fd207bf14a5f"
      }
    },
    {
      "fullUrl": "urn:uuid:2fe3e216-98bb-3227-1de5-abeff5203e35",
      "resource": {
        "resourceType": "Observation",
        "id": "2fe3e216-98bb-3227-1de5-abeff5203e35",
        "meta": {
          "profile": [
            "http://hl7.org/fhir/us/core/StructureDefinition/us-core-observationresults"
          ],
          "source": [
            "ecr"
          ]
        },
        "identifier": [
          {
            "system": "urn:oid:2.16.840.1.113883",
            "value": "https://fhir-ehr.cerner.com/r4/da0b5d99-573c-4f5e-aaf6-8d39fa93d033/Observation/M-19362457532/_history/1"
          }
        ],
        "category": [
          {
            "coding": [
              {
                "system": "http://terminology.hl7.org/CodeSystem/observation-category",
                "code": "laboratory"
              }
            ]
          }
        ],
        "status": "final",
        "code": {
          "coding": [
            {
              "code": "50384-7",
              "system": "http://loinc.org"
            }
          ]
        },
        "effectiveDateTime": "2022-04-28T01:22:00Z",
        "valueString": "Not Reported",
        "subject": {
          "reference": "Patient/2dde8c35-e57c-4f3e-a77c-39e144e9deda"
        }
      },
      "request": {
        "method": "PUT",
        "url": "Observation/2fe3e216-98bb-3227-1de5-abeff5203e35"
      }
    },
    {
      "fullUrl": "urn:uuid:09fb9154-9162-645b-6502-6783f90d7690",
      "resource": {
        "resourceType": "DiagnosticReport",
        "id": "09fb9154-9162-645b-6502-6783f90d7690",
        "identifier": [
          {
            "system": "urn:ietf:rfc:3986",
            "value": "urn:uuid:2b4dbbbb-1343-4db3-81da-78c47b9149b6"
          }
        ],
        "status": "final",
        "code": {
          "coding": [
            {
              "code": "18182-6",
              "system": "http://loinc.org"
            }
          ]
        },
        "subject": {
          "reference": "Patient/2dde8c35-e57c-4f3e-a77c-39e144e9deda"
        },
        "result": [
          {
            "reference": "Observation/ab744bd8-ac34-dcd1-70ea-59779356cc89"
          }
        ],
        "meta": {
          "source": [
            "ecr"
          ]
        }
      },
      "request": {
        "method": "PUT",
        "url": "DiagnosticReport/09fb9154-9162-645b-6502-6783f90d7690"
      }
    },
    {
      "fullUrl": "urn:uuid:ab744bd8-ac34-dcd1-70ea-59779356cc89",
      "resource": {
        "resourceType": "Observation",
        "id": "ab744bd8-ac34-dcd1-70ea-59779356cc89",
        "meta": {
          "profile": [
            "http://hl7.org/fhir/us/core/StructureDefinition/us-core-observationresults"
          ],
          "source": [
            "ecr"
          ]
        },
        "identifier": [
          {
            "system": "urn:oid:2.16.840.1.113883",
            "value": "https://fhir-ehr.cerner.com/r4/da0b5d99-573c-4f5e-aaf6-8d39fa93d033/Observation/M-19362457412/_history/1"
          }
        ],
        "category": [
          {
            "coding": [
              {
                "system": "http://terminology.hl7.org/CodeSystem/observation-category",
                "code": "laboratory"
              }
            ]
          }
        ],
        "status": "final",
        "code": {
          "coding": [
            {
              "code": "18182-6",
              "system": "http://loinc.org"
            }
          ]
        },
        "effectiveDateTime": "2022-04-28T01:22:00Z",
        "valueQuantity": {
          "value": 284,
          "unit": "mOsmol/L"
        },
        "interpretation": [
          {
            "coding": [
              {
                "code": "N",
                "display": "Normal",
                "system": "http://terminology.hl7.org/CodeSystem/v3-ObservationInterpretation"
              }
            ]
          }
        ],
        "subject": {
          "reference": "Patient/2dde8c35-e57c-4f3e-a77c-39e144e9deda"
        }
      },
      "request": {
        "method": "PUT",
        "url": "Observation/ab744bd8-ac34-dcd1-70ea-59779356cc89"
      }
    },
    {
      "fullUrl": "urn:uuid:cdaeb7eb-8181-9b22-5947-efdc039aec38",
      "resource": {
        "resourceType": "DiagnosticReport",
        "id": "cdaeb7eb-8181-9b22-5947-efdc039aec38",
        "identifier": [
          {
            "system": "urn:ietf:rfc:3986",
            "value": "urn:uuid:08d00cb5-a212-4a14-ae59-9f4dd726dfe4"
          }
        ],
        "status": "final",
        "code": {
          "coding": [
            {
              "code": "1759-0",
              "system": "http://loinc.org"
            }
          ]
        },
        "subject": {
          "reference": "Patient/2dde8c35-e57c-4f3e-a77c-39e144e9deda"
        },
        "result": [
          {
            "reference": "Observation/85282dfe-f52b-62dc-2503-a3eaeb039b5b"
          }
        ],
        "meta": {
          "source": [
            "ecr"
          ]
        }
      },
      "request": {
        "method": "PUT",
        "url": "DiagnosticReport/cdaeb7eb-8181-9b22-5947-efdc039aec38"
      }
    },
    {
      "fullUrl": "urn:uuid:85282dfe-f52b-62dc-2503-a3eaeb039b5b",
      "resource": {
        "resourceType": "Observation",
        "id": "85282dfe-f52b-62dc-2503-a3eaeb039b5b",
        "meta": {
          "profile": [
            "http://hl7.org/fhir/us/core/StructureDefinition/us-core-observationresults"
          ],
          "source": [
            "ecr"
          ]
        },
        "identifier": [
          {
            "system": "urn:oid:2.16.840.1.113883",
            "value": "https://fhir-ehr.cerner.com/r4/da0b5d99-573c-4f5e-aaf6-8d39fa93d033/Observation/M-19362457428/_history/1"
          }
        ],
        "category": [
          {
            "coding": [
              {
                "system": "http://terminology.hl7.org/CodeSystem/observation-category",
                "code": "laboratory"
              }
            ]
          }
        ],
        "status": "final",
        "code": {
          "coding": [
            {
              "code": "1759-0",
              "system": "http://loinc.org"
            }
          ]
        },
        "effectiveDateTime": "2022-04-28T01:22:00Z",
        "valueQuantity": {
          "value": 1.1,
          "unit": "Ratio"
        },
        "subject": {
          "reference": "Patient/2dde8c35-e57c-4f3e-a77c-39e144e9deda"
        }
      },
      "request": {
        "method": "PUT",
        "url": "Observation/85282dfe-f52b-62dc-2503-a3eaeb039b5b"
      }
    },
    {
      "fullUrl": "urn:uuid:da9b3329-a306-3a85-f608-8e2d35e0eff3",
      "resource": {
        "resourceType": "DiagnosticReport",
        "id": "da9b3329-a306-3a85-f608-8e2d35e0eff3",
        "identifier": [
          {
            "system": "urn:ietf:rfc:3986",
            "value": "urn:uuid:e8cdd0f1-3d29-4e65-b83b-93ad4598c6e8"
          }
        ],
        "status": "final",
        "code": {
          "coding": [
            {
              "code": "48642-3",
              "system": "http://loinc.org"
            }
          ]
        },
        "subject": {
          "reference": "Patient/2dde8c35-e57c-4f3e-a77c-39e144e9deda"
        },
        "result": [
          {
            "reference": "Observation/25d49e19-28ec-ac57-ac3f-849f39d64baa"
          }
        ],
        "meta": {
          "source": [
            "ecr"
          ]
        }
      },
      "request": {
        "method": "PUT",
        "url": "DiagnosticReport/da9b3329-a306-3a85-f608-8e2d35e0eff3"
      }
    },
    {
      "fullUrl": "urn:uuid:25d49e19-28ec-ac57-ac3f-849f39d64baa",
      "resource": {
        "resourceType": "Observation",
        "id": "25d49e19-28ec-ac57-ac3f-849f39d64baa",
        "meta": {
          "profile": [
            "http://hl7.org/fhir/us/core/StructureDefinition/us-core-observationresults"
          ],
          "source": [
            "ecr"
          ]
        },
        "identifier": [
          {
            "system": "urn:oid:2.16.840.1.113883",
            "value": "https://fhir-ehr.cerner.com/r4/da0b5d99-573c-4f5e-aaf6-8d39fa93d033/Observation/M-19362464919/_history/1"
          }
        ],
        "category": [
          {
            "coding": [
              {
                "system": "http://terminology.hl7.org/CodeSystem/observation-category",
                "code": "laboratory"
              }
            ]
          }
        ],
        "status": "final",
        "code": {
          "coding": [
            {
              "code": "48642-3",
              "system": "http://loinc.org"
            }
          ]
        },
        "effectiveDateTime": "2022-04-28T01:22:00Z",
        "valueString": "64.68 mL/min/1.73m2",
        "subject": {
          "reference": "Patient/2dde8c35-e57c-4f3e-a77c-39e144e9deda"
        }
      },
      "request": {
        "method": "PUT",
        "url": "Observation/25d49e19-28ec-ac57-ac3f-849f39d64baa"
      }
    },
    {
      "fullUrl": "urn:uuid:05729fca-97db-9f40-e046-0c00742ea1a5",
      "resource": {
        "resourceType": "DiagnosticReport",
        "id": "05729fca-97db-9f40-e046-0c00742ea1a5",
        "identifier": [
          {
            "system": "urn:ietf:rfc:3986",
            "value": "urn:uuid:c5277098-af2b-4d30-89b5-07fadccb73da"
          }
        ],
        "status": "final",
        "code": {
          "coding": [
            {
              "code": "48643-1",
              "system": "http://loinc.org"
            }
          ]
        },
        "subject": {
          "reference": "Patient/2dde8c35-e57c-4f3e-a77c-39e144e9deda"
        },
        "result": [
          {
            "reference": "Observation/e67ca738-8c77-25a5-c9cc-6e291c989089"
          }
        ],
        "meta": {
          "source": [
            "ecr"
          ]
        }
      },
      "request": {
        "method": "PUT",
        "url": "DiagnosticReport/05729fca-97db-9f40-e046-0c00742ea1a5"
      }
    },
    {
      "fullUrl": "urn:uuid:e67ca738-8c77-25a5-c9cc-6e291c989089",
      "resource": {
        "resourceType": "Observation",
        "id": "e67ca738-8c77-25a5-c9cc-6e291c989089",
        "meta": {
          "profile": [
            "http://hl7.org/fhir/us/core/StructureDefinition/us-core-observationresults"
          ],
          "source": [
            "ecr"
          ]
        },
        "identifier": [
          {
            "system": "urn:oid:2.16.840.1.113883",
            "value": "https://fhir-ehr.cerner.com/r4/da0b5d99-573c-4f5e-aaf6-8d39fa93d033/Observation/M-19362464928/_history/1"
          }
        ],
        "category": [
          {
            "coding": [
              {
                "system": "http://terminology.hl7.org/CodeSystem/observation-category",
                "code": "laboratory"
              }
            ]
          }
        ],
        "status": "final",
        "code": {
          "coding": [
            {
              "code": "48643-1",
              "system": "http://loinc.org"
            }
          ]
        },
        "effectiveDateTime": "2022-04-28T01:22:00Z",
        "valueString": "74.97 mL/min/1.73m2",
        "subject": {
          "reference": "Patient/2dde8c35-e57c-4f3e-a77c-39e144e9deda"
        }
      },
      "request": {
        "method": "PUT",
        "url": "Observation/e67ca738-8c77-25a5-c9cc-6e291c989089"
      }
    },
    {
      "fullUrl": "urn:uuid:1bd664b4-5f8e-a50c-4182-2a8d394e51d7",
      "resource": {
        "resourceType": "DiagnosticReport",
        "id": "1bd664b4-5f8e-a50c-4182-2a8d394e51d7",
        "identifier": [
          {
            "system": "urn:ietf:rfc:3986",
            "value": "urn:uuid:3e27c8f4-1362-45d4-8bf9-cbc8d096bdfc"
          }
        ],
        "status": "final",
        "code": {
          "coding": [
            {
              "code": "2951-2",
              "system": "http://loinc.org"
            }
          ]
        },
        "subject": {
          "reference": "Patient/2dde8c35-e57c-4f3e-a77c-39e144e9deda"
        },
        "result": [
          {
            "reference": "Observation/7a77d2a2-f27b-cb00-4957-3b1069335a07"
          }
        ],
        "meta": {
          "source": [
            "ecr"
          ]
        }
      },
      "request": {
        "method": "PUT",
        "url": "DiagnosticReport/1bd664b4-5f8e-a50c-4182-2a8d394e51d7"
      }
    },
    {
      "fullUrl": "urn:uuid:7a77d2a2-f27b-cb00-4957-3b1069335a07",
      "resource": {
        "resourceType": "Observation",
        "id": "7a77d2a2-f27b-cb00-4957-3b1069335a07",
        "meta": {
          "profile": [
            "http://hl7.org/fhir/us/core/StructureDefinition/us-core-observationresults"
          ],
          "source": [
            "ecr"
          ]
        },
        "identifier": [
          {
            "system": "urn:oid:2.16.840.1.113883",
            "value": "https://fhir-ehr.cerner.com/r4/da0b5d99-573c-4f5e-aaf6-8d39fa93d033/Observation/M-19362457396/_history/1"
          }
        ],
        "category": [
          {
            "coding": [
              {
                "system": "http://terminology.hl7.org/CodeSystem/observation-category",
                "code": "laboratory"
              }
            ]
          }
        ],
        "status": "final",
        "code": {
          "coding": [
            {
              "code": "2951-2",
              "system": "http://loinc.org"
            }
          ]
        },
        "effectiveDateTime": "2022-04-28T01:22:00Z",
        "valueQuantity": {
          "value": 141,
          "unit": "mmol/L"
        },
        "interpretation": [
          {
            "coding": [
              {
                "code": "N",
                "display": "Normal",
                "system": "http://terminology.hl7.org/CodeSystem/v3-ObservationInterpretation"
              }
            ]
          }
        ],
        "subject": {
          "reference": "Patient/2dde8c35-e57c-4f3e-a77c-39e144e9deda"
        }
      },
      "request": {
        "method": "PUT",
        "url": "Observation/7a77d2a2-f27b-cb00-4957-3b1069335a07"
      }
    },
    {
      "fullUrl": "urn:uuid:4bedcd18-d97b-3d8a-d2e4-b5ad93d0c20d",
      "resource": {
        "resourceType": "DiagnosticReport",
        "id": "4bedcd18-d97b-3d8a-d2e4-b5ad93d0c20d",
        "identifier": [
          {
            "system": "urn:ietf:rfc:3986",
            "value": "urn:uuid:45d55c23-5aed-45f7-aa0f-f0ccf2a5992f"
          }
        ],
        "status": "final",
        "code": {
          "coding": [
            {
              "code": "2823-3",
              "system": "http://loinc.org"
            }
          ]
        },
        "subject": {
          "reference": "Patient/2dde8c35-e57c-4f3e-a77c-39e144e9deda"
        },
        "result": [
          {
            "reference": "Observation/0c569b39-48fd-f743-cd94-3fc38ef5bc52"
          }
        ],
        "meta": {
          "source": [
            "ecr"
          ]
        }
      },
      "request": {
        "method": "PUT",
        "url": "DiagnosticReport/4bedcd18-d97b-3d8a-d2e4-b5ad93d0c20d"
      }
    },
    {
      "fullUrl": "urn:uuid:0c569b39-48fd-f743-cd94-3fc38ef5bc52",
      "resource": {
        "resourceType": "Observation",
        "id": "0c569b39-48fd-f743-cd94-3fc38ef5bc52",
        "meta": {
          "profile": [
            "http://hl7.org/fhir/us/core/StructureDefinition/us-core-observationresults"
          ],
          "source": [
            "ecr"
          ]
        },
        "identifier": [
          {
            "system": "urn:oid:2.16.840.1.113883",
            "value": "https://fhir-ehr.cerner.com/r4/da0b5d99-573c-4f5e-aaf6-8d39fa93d033/Observation/M-19362457398/_history/1"
          }
        ],
        "category": [
          {
            "coding": [
              {
                "system": "http://terminology.hl7.org/CodeSystem/observation-category",
                "code": "laboratory"
              }
            ]
          }
        ],
        "status": "final",
        "code": {
          "coding": [
            {
              "code": "2823-3",
              "system": "http://loinc.org"
            }
          ]
        },
        "effectiveDateTime": "2022-04-28T01:22:00Z",
        "valueQuantity": {
          "value": 3.6,
          "unit": "mmol/L"
        },
        "interpretation": [
          {
            "coding": [
              {
                "code": "N",
                "display": "Normal",
                "system": "http://terminology.hl7.org/CodeSystem/v3-ObservationInterpretation"
              }
            ]
          }
        ],
        "subject": {
          "reference": "Patient/2dde8c35-e57c-4f3e-a77c-39e144e9deda"
        }
      },
      "request": {
        "method": "PUT",
        "url": "Observation/0c569b39-48fd-f743-cd94-3fc38ef5bc52"
      }
    },
    {
      "fullUrl": "urn:uuid:f058aa8a-c1ee-3092-032c-19106900cffe",
      "resource": {
        "resourceType": "DiagnosticReport",
        "id": "f058aa8a-c1ee-3092-032c-19106900cffe",
        "identifier": [
          {
            "system": "urn:ietf:rfc:3986",
            "value": "urn:uuid:c0b3e368-7873-4fcc-8358-a13edca4426c"
          }
        ],
        "status": "final",
        "code": {
          "coding": [
            {
              "code": "33762-6",
              "system": "http://loinc.org"
            }
          ]
        },
        "subject": {
          "reference": "Patient/2dde8c35-e57c-4f3e-a77c-39e144e9deda"
        },
        "result": [
          {
            "reference": "Observation/c7201ac1-f376-0b19-d3ee-bd24e37d9767"
          }
        ],
        "meta": {
          "source": [
            "ecr"
          ]
        }
      },
      "request": {
        "method": "PUT",
        "url": "DiagnosticReport/f058aa8a-c1ee-3092-032c-19106900cffe"
      }
    },
    {
      "fullUrl": "urn:uuid:c7201ac1-f376-0b19-d3ee-bd24e37d9767",
      "resource": {
        "resourceType": "Observation",
        "id": "c7201ac1-f376-0b19-d3ee-bd24e37d9767",
        "meta": {
          "profile": [
            "http://hl7.org/fhir/us/core/StructureDefinition/us-core-observationresults"
          ],
          "source": [
            "ecr"
          ]
        },
        "identifier": [
          {
            "system": "urn:oid:2.16.840.1.113883",
            "value": "https://fhir-ehr.cerner.com/r4/da0b5d99-573c-4f5e-aaf6-8d39fa93d033/Observation/M-19362457458/_history/1"
          }
        ],
        "category": [
          {
            "coding": [
              {
                "system": "http://terminology.hl7.org/CodeSystem/observation-category",
                "code": "laboratory"
              }
            ]
          }
        ],
        "status": "final",
        "code": {
          "coding": [
            {
              "code": "33762-6",
              "system": "http://loinc.org"
            }
          ]
        },
        "effectiveDateTime": "2022-04-28T01:22:00Z",
        "valueQuantity": {
          "value": 44,
          "unit": "pg/mL"
        },
        "interpretation": [
          {
            "coding": [
              {
                "code": "N",
                "display": "Normal",
                "system": "http://terminology.hl7.org/CodeSystem/v3-ObservationInterpretation"
              }
            ]
          }
        ],
        "subject": {
          "reference": "Patient/2dde8c35-e57c-4f3e-a77c-39e144e9deda"
        }
      },
      "request": {
        "method": "PUT",
        "url": "Observation/c7201ac1-f376-0b19-d3ee-bd24e37d9767"
      }
    },
    {
      "fullUrl": "urn:uuid:702b72bd-60a9-1358-b0df-10979d36012f",
      "resource": {
        "resourceType": "DiagnosticReport",
        "id": "702b72bd-60a9-1358-b0df-10979d36012f",
        "identifier": [
          {
            "system": "urn:ietf:rfc:3986",
            "value": "urn:uuid:d0af710a-f2f3-4d5f-8c4e-2b73c9a0daa3"
          }
        ],
        "status": "final",
        "code": {
          "coding": [
            {
              "code": "704-7",
              "system": "http://loinc.org"
            }
          ]
        },
        "subject": {
          "reference": "Patient/2dde8c35-e57c-4f3e-a77c-39e144e9deda"
        },
        "result": [
          {
            "reference": "Observation/44edfdf3-6a25-21eb-bcbb-2e49db12cb1e"
          }
        ],
        "meta": {
          "source": [
            "ecr"
          ]
        }
      },
      "request": {
        "method": "PUT",
        "url": "DiagnosticReport/702b72bd-60a9-1358-b0df-10979d36012f"
      }
    },
    {
      "fullUrl": "urn:uuid:44edfdf3-6a25-21eb-bcbb-2e49db12cb1e",
      "resource": {
        "resourceType": "Observation",
        "id": "44edfdf3-6a25-21eb-bcbb-2e49db12cb1e",
        "meta": {
          "profile": [
            "http://hl7.org/fhir/us/core/StructureDefinition/us-core-observationresults"
          ],
          "source": [
            "ecr"
          ]
        },
        "identifier": [
          {
            "system": "urn:oid:2.16.840.1.113883",
            "value": "https://fhir-ehr.cerner.com/r4/da0b5d99-573c-4f5e-aaf6-8d39fa93d033/Observation/M-19362290959/_history/1"
          }
        ],
        "category": [
          {
            "coding": [
              {
                "system": "http://terminology.hl7.org/CodeSystem/observation-category",
                "code": "laboratory"
              }
            ]
          }
        ],
        "status": "final",
        "code": {
          "coding": [
            {
              "code": "704-7",
              "system": "http://loinc.org"
            }
          ]
        },
        "effectiveDateTime": "2022-04-28T01:22:00Z",
        "valueQuantity": {
          "value": 0.05,
          "unit": "x10e3/mcL"
        },
        "subject": {
          "reference": "Patient/2dde8c35-e57c-4f3e-a77c-39e144e9deda"
        }
      },
      "request": {
        "method": "PUT",
        "url": "Observation/44edfdf3-6a25-21eb-bcbb-2e49db12cb1e"
      }
    },
    {
      "fullUrl": "urn:uuid:a50b5f68-c600-249f-f625-81ff47c5362b",
      "resource": {
        "resourceType": "DiagnosticReport",
        "id": "a50b5f68-c600-249f-f625-81ff47c5362b",
        "identifier": [
          {
            "system": "urn:ietf:rfc:3986",
            "value": "urn:uuid:af32e8d1-ca63-4c6d-8d38-9526413ae95c"
          }
        ],
        "status": "final",
        "code": {
          "coding": [
            {
              "code": "1751-7",
              "system": "http://loinc.org"
            }
          ]
        },
        "subject": {
          "reference": "Patient/2dde8c35-e57c-4f3e-a77c-39e144e9deda"
        },
        "result": [
          {
            "reference": "Observation/6f163e9c-422b-9b4d-0d21-d5eb704c5424"
          }
        ],
        "meta": {
          "source": [
            "ecr"
          ]
        }
      },
      "request": {
        "method": "PUT",
        "url": "DiagnosticReport/a50b5f68-c600-249f-f625-81ff47c5362b"
      }
    },
    {
      "fullUrl": "urn:uuid:6f163e9c-422b-9b4d-0d21-d5eb704c5424",
      "resource": {
        "resourceType": "Observation",
        "id": "6f163e9c-422b-9b4d-0d21-d5eb704c5424",
        "meta": {
          "profile": [
            "http://hl7.org/fhir/us/core/StructureDefinition/us-core-observationresults"
          ],
          "source": [
            "ecr"
          ]
        },
        "identifier": [
          {
            "system": "urn:oid:2.16.840.1.113883",
            "value": "https://fhir-ehr.cerner.com/r4/da0b5d99-573c-4f5e-aaf6-8d39fa93d033/Observation/M-19362457418/_history/1"
          }
        ],
        "category": [
          {
            "coding": [
              {
                "system": "http://terminology.hl7.org/CodeSystem/observation-category",
                "code": "laboratory"
              }
            ]
          }
        ],
        "status": "final",
        "code": {
          "coding": [
            {
              "code": "1751-7",
              "system": "http://loinc.org"
            }
          ]
        },
        "effectiveDateTime": "2022-04-28T01:22:00Z",
        "valueQuantity": {
          "value": 4.1,
          "unit": "gm/dL"
        },
        "interpretation": [
          {
            "coding": [
              {
                "code": "N",
                "display": "Normal",
                "system": "http://terminology.hl7.org/CodeSystem/v3-ObservationInterpretation"
              }
            ]
          }
        ],
        "subject": {
          "reference": "Patient/2dde8c35-e57c-4f3e-a77c-39e144e9deda"
        }
      },
      "request": {
        "method": "PUT",
        "url": "Observation/6f163e9c-422b-9b4d-0d21-d5eb704c5424"
      }
    },
    {
      "fullUrl": "urn:uuid:2d4b95cd-d937-63d5-2ed7-b6e069d80352",
      "resource": {
        "resourceType": "DiagnosticReport",
        "id": "2d4b95cd-d937-63d5-2ed7-b6e069d80352",
        "identifier": [
          {
            "system": "urn:ietf:rfc:3986",
            "value": "urn:uuid:ffd5bf8d-2635-4786-a813-f1cbbb9439bc"
          }
        ],
        "status": "final",
        "code": {
          "coding": [
            {
              "code": "742-7",
              "system": "http://loinc.org"
            }
          ]
        },
        "subject": {
          "reference": "Patient/2dde8c35-e57c-4f3e-a77c-39e144e9deda"
        },
        "result": [
          {
            "reference": "Observation/097acd41-c400-927c-548f-70e7c94ea1a6"
          }
        ],
        "meta": {
          "source": [
            "ecr"
          ]
        }
      },
      "request": {
        "method": "PUT",
        "url": "DiagnosticReport/2d4b95cd-d937-63d5-2ed7-b6e069d80352"
      }
    },
    {
      "fullUrl": "urn:uuid:097acd41-c400-927c-548f-70e7c94ea1a6",
      "resource": {
        "resourceType": "Observation",
        "id": "097acd41-c400-927c-548f-70e7c94ea1a6",
        "meta": {
          "profile": [
            "http://hl7.org/fhir/us/core/StructureDefinition/us-core-observationresults"
          ],
          "source": [
            "ecr"
          ]
        },
        "identifier": [
          {
            "system": "urn:oid:2.16.840.1.113883",
            "value": "https://fhir-ehr.cerner.com/r4/da0b5d99-573c-4f5e-aaf6-8d39fa93d033/Observation/M-19362290955/_history/1"
          }
        ],
        "category": [
          {
            "coding": [
              {
                "system": "http://terminology.hl7.org/CodeSystem/observation-category",
                "code": "laboratory"
              }
            ]
          }
        ],
        "status": "final",
        "code": {
          "coding": [
            {
              "code": "742-7",
              "system": "http://loinc.org"
            }
          ]
        },
        "effectiveDateTime": "2022-04-28T01:22:00Z",
        "valueQuantity": {
          "value": 0.6,
          "unit": "x10e3/mcL"
        },
        "subject": {
          "reference": "Patient/2dde8c35-e57c-4f3e-a77c-39e144e9deda"
        }
      },
      "request": {
        "method": "PUT",
        "url": "Observation/097acd41-c400-927c-548f-70e7c94ea1a6"
      }
    },
    {
      "fullUrl": "urn:uuid:f4d3e119-cbaa-f708-26bd-8a23a95022c8",
      "resource": {
        "resourceType": "DiagnosticReport",
        "id": "f4d3e119-cbaa-f708-26bd-8a23a95022c8",
        "identifier": [
          {
            "system": "urn:ietf:rfc:3986",
            "value": "urn:uuid:541a6170-f73b-4461-9761-ebd138eea790"
          }
        ],
        "status": "final",
        "code": {
          "coding": [
            {
              "code": "751-8",
              "system": "http://loinc.org"
            }
          ]
        },
        "subject": {
          "reference": "Patient/2dde8c35-e57c-4f3e-a77c-39e144e9deda"
        },
        "result": [
          {
            "reference": "Observation/0bd6416c-2cd5-54b3-fd1f-430d133614cc"
          }
        ],
        "meta": {
          "source": [
            "ecr"
          ]
        }
      },
      "request": {
        "method": "PUT",
        "url": "DiagnosticReport/f4d3e119-cbaa-f708-26bd-8a23a95022c8"
      }
    },
    {
      "fullUrl": "urn:uuid:0bd6416c-2cd5-54b3-fd1f-430d133614cc",
      "resource": {
        "resourceType": "Observation",
        "id": "0bd6416c-2cd5-54b3-fd1f-430d133614cc",
        "meta": {
          "profile": [
            "http://hl7.org/fhir/us/core/StructureDefinition/us-core-observationresults"
          ],
          "source": [
            "ecr"
          ]
        },
        "identifier": [
          {
            "system": "urn:oid:2.16.840.1.113883",
            "value": "https://fhir-ehr.cerner.com/r4/da0b5d99-573c-4f5e-aaf6-8d39fa93d033/Observation/M-19362290951/_history/1"
          }
        ],
        "category": [
          {
            "coding": [
              {
                "system": "http://terminology.hl7.org/CodeSystem/observation-category",
                "code": "laboratory"
              }
            ]
          }
        ],
        "status": "final",
        "code": {
          "coding": [
            {
              "code": "751-8",
              "system": "http://loinc.org"
            }
          ]
        },
        "effectiveDateTime": "2022-04-28T01:22:00Z",
        "valueQuantity": {
          "value": 3.3,
          "unit": "x10e3/mcL"
        },
        "subject": {
          "reference": "Patient/2dde8c35-e57c-4f3e-a77c-39e144e9deda"
        }
      },
      "request": {
        "method": "PUT",
        "url": "Observation/0bd6416c-2cd5-54b3-fd1f-430d133614cc"
      }
    },
    {
      "fullUrl": "urn:uuid:d892ba38-2d95-64a1-4381-36c8af1f4249",
      "resource": {
        "resourceType": "DiagnosticReport",
        "id": "d892ba38-2d95-64a1-4381-36c8af1f4249",
        "identifier": [
          {
            "system": "urn:ietf:rfc:3986",
            "value": "urn:uuid:f589eac8-9ec6-4d0a-90ac-af0fc48e23c0"
          }
        ],
        "status": "final",
        "code": {
          "coding": [
            {
              "code": "706-2",
              "system": "http://loinc.org"
            }
          ]
        },
        "subject": {
          "reference": "Patient/2dde8c35-e57c-4f3e-a77c-39e144e9deda"
        },
        "result": [
          {
            "reference": "Observation/23e6b81b-9d18-6113-1a3d-c190499b5eae"
          }
        ],
        "meta": {
          "source": [
            "ecr"
          ]
        }
      },
      "request": {
        "method": "PUT",
        "url": "DiagnosticReport/d892ba38-2d95-64a1-4381-36c8af1f4249"
      }
    },
    {
      "fullUrl": "urn:uuid:23e6b81b-9d18-6113-1a3d-c190499b5eae",
      "resource": {
        "resourceType": "Observation",
        "id": "23e6b81b-9d18-6113-1a3d-c190499b5eae",
        "meta": {
          "profile": [
            "http://hl7.org/fhir/us/core/StructureDefinition/us-core-observationresults"
          ],
          "source": [
            "ecr"
          ]
        },
        "identifier": [
          {
            "system": "urn:oid:2.16.840.1.113883",
            "value": "https://fhir-ehr.cerner.com/r4/da0b5d99-573c-4f5e-aaf6-8d39fa93d033/Observation/M-19362290947/_history/1"
          }
        ],
        "category": [
          {
            "coding": [
              {
                "system": "http://terminology.hl7.org/CodeSystem/observation-category",
                "code": "laboratory"
              }
            ]
          }
        ],
        "status": "final",
        "code": {
          "coding": [
            {
              "code": "706-2",
              "system": "http://loinc.org"
            }
          ]
        },
        "effectiveDateTime": "2022-04-28T01:22:00Z",
        "valueQuantity": {
          "value": 0.8,
          "unit": "%"
        },
        "interpretation": [
          {
            "coding": [
              {
                "code": "N",
                "display": "Normal",
                "system": "http://terminology.hl7.org/CodeSystem/v3-ObservationInterpretation"
              }
            ]
          }
        ],
        "subject": {
          "reference": "Patient/2dde8c35-e57c-4f3e-a77c-39e144e9deda"
        }
      },
      "request": {
        "method": "PUT",
        "url": "Observation/23e6b81b-9d18-6113-1a3d-c190499b5eae"
      }
    },
    {
      "fullUrl": "urn:uuid:25248172-6651-63e7-5b7a-2a498e54447c",
      "resource": {
        "resourceType": "DiagnosticReport",
        "id": "25248172-6651-63e7-5b7a-2a498e54447c",
        "identifier": [
          {
            "system": "urn:ietf:rfc:3986",
            "value": "urn:uuid:4af91841-7b04-4b3f-93a5-5bb290578635"
          }
        ],
        "status": "final",
        "code": {
          "coding": [
            {
              "code": "713-8",
              "system": "http://loinc.org"
            }
          ]
        },
        "subject": {
          "reference": "Patient/2dde8c35-e57c-4f3e-a77c-39e144e9deda"
        },
        "result": [
          {
            "reference": "Observation/00992f2b-b0f4-f2bc-b51b-b1094cf6d208"
          }
        ],
        "meta": {
          "source": [
            "ecr"
          ]
        }
      },
      "request": {
        "method": "PUT",
        "url": "DiagnosticReport/25248172-6651-63e7-5b7a-2a498e54447c"
      }
    },
    {
      "fullUrl": "urn:uuid:00992f2b-b0f4-f2bc-b51b-b1094cf6d208",
      "resource": {
        "resourceType": "Observation",
        "id": "00992f2b-b0f4-f2bc-b51b-b1094cf6d208",
        "meta": {
          "profile": [
            "http://hl7.org/fhir/us/core/StructureDefinition/us-core-observationresults"
          ],
          "source": [
            "ecr"
          ]
        },
        "identifier": [
          {
            "system": "urn:oid:2.16.840.1.113883",
            "value": "https://fhir-ehr.cerner.com/r4/da0b5d99-573c-4f5e-aaf6-8d39fa93d033/Observation/M-19362290945/_history/1"
          }
        ],
        "category": [
          {
            "coding": [
              {
                "system": "http://terminology.hl7.org/CodeSystem/observation-category",
                "code": "laboratory"
              }
            ]
          }
        ],
        "status": "final",
        "code": {
          "coding": [
            {
              "code": "713-8",
              "system": "http://loinc.org"
            }
          ]
        },
        "effectiveDateTime": "2022-04-28T01:22:00Z",
        "valueQuantity": {
          "value": 1.9,
          "unit": "%"
        },
        "interpretation": [
          {
            "coding": [
              {
                "code": "N",
                "display": "Normal",
                "system": "http://terminology.hl7.org/CodeSystem/v3-ObservationInterpretation"
              }
            ]
          }
        ],
        "subject": {
          "reference": "Patient/2dde8c35-e57c-4f3e-a77c-39e144e9deda"
        }
      },
      "request": {
        "method": "PUT",
        "url": "Observation/00992f2b-b0f4-f2bc-b51b-b1094cf6d208"
      }
    },
    {
      "fullUrl": "urn:uuid:50cca501-0205-fcf0-1dea-dfb69762a1df",
      "resource": {
        "resourceType": "DiagnosticReport",
        "id": "50cca501-0205-fcf0-1dea-dfb69762a1df",
        "identifier": [
          {
            "system": "urn:ietf:rfc:3986",
            "value": "urn:uuid:16da6cc3-8419-4817-9fcb-345afb089870"
          }
        ],
        "status": "final",
        "code": {
          "coding": [
            {
              "code": "736-9",
              "system": "http://loinc.org"
            }
          ]
        },
        "subject": {
          "reference": "Patient/2dde8c35-e57c-4f3e-a77c-39e144e9deda"
        },
        "result": [
          {
            "reference": "Observation/27da57ee-8d65-bbca-aa71-222f16e3d222"
          }
        ],
        "meta": {
          "source": [
            "ecr"
          ]
        }
      },
      "request": {
        "method": "PUT",
        "url": "DiagnosticReport/50cca501-0205-fcf0-1dea-dfb69762a1df"
      }
    },
    {
      "fullUrl": "urn:uuid:27da57ee-8d65-bbca-aa71-222f16e3d222",
      "resource": {
        "resourceType": "Observation",
        "id": "27da57ee-8d65-bbca-aa71-222f16e3d222",
        "meta": {
          "profile": [
            "http://hl7.org/fhir/us/core/StructureDefinition/us-core-observationresults"
          ],
          "source": [
            "ecr"
          ]
        },
        "identifier": [
          {
            "system": "urn:oid:2.16.840.1.113883",
            "value": "https://fhir-ehr.cerner.com/r4/da0b5d99-573c-4f5e-aaf6-8d39fa93d033/Observation/M-19362290941/_history/1"
          }
        ],
        "category": [
          {
            "coding": [
              {
                "system": "http://terminology.hl7.org/CodeSystem/observation-category",
                "code": "laboratory"
              }
            ]
          }
        ],
        "status": "final",
        "code": {
          "coding": [
            {
              "code": "736-9",
              "system": "http://loinc.org"
            }
          ]
        },
        "effectiveDateTime": "2022-04-28T01:22:00Z",
        "valueQuantity": {
          "value": 32.3,
          "unit": "%"
        },
        "interpretation": [
          {
            "coding": [
              {
                "code": "N",
                "display": "Normal",
                "system": "http://terminology.hl7.org/CodeSystem/v3-ObservationInterpretation"
              }
            ]
          }
        ],
        "subject": {
          "reference": "Patient/2dde8c35-e57c-4f3e-a77c-39e144e9deda"
        }
      },
      "request": {
        "method": "PUT",
        "url": "Observation/27da57ee-8d65-bbca-aa71-222f16e3d222"
      }
    },
    {
      "fullUrl": "urn:uuid:78e5c1a8-8933-24fe-022d-3007af3da176",
      "resource": {
        "resourceType": "DiagnosticReport",
        "id": "78e5c1a8-8933-24fe-022d-3007af3da176",
        "identifier": [
          {
            "system": "urn:ietf:rfc:3986",
            "value": "urn:uuid:d7a32435-1ef4-40b8-b5ae-fd3a913fcf57"
          }
        ],
        "status": "final",
        "code": {
          "coding": [
            {
              "code": "770-8",
              "system": "http://loinc.org"
            }
          ]
        },
        "subject": {
          "reference": "Patient/2dde8c35-e57c-4f3e-a77c-39e144e9deda"
        },
        "result": [
          {
            "reference": "Observation/8f0e9015-e28d-c36e-3f61-ed64bf515634"
          }
        ],
        "meta": {
          "source": [
            "ecr"
          ]
        }
      },
      "request": {
        "method": "PUT",
        "url": "DiagnosticReport/78e5c1a8-8933-24fe-022d-3007af3da176"
      }
    },
    {
      "fullUrl": "urn:uuid:8f0e9015-e28d-c36e-3f61-ed64bf515634",
      "resource": {
        "resourceType": "Observation",
        "id": "8f0e9015-e28d-c36e-3f61-ed64bf515634",
        "meta": {
          "profile": [
            "http://hl7.org/fhir/us/core/StructureDefinition/us-core-observationresults"
          ],
          "source": [
            "ecr"
          ]
        },
        "identifier": [
          {
            "system": "urn:oid:2.16.840.1.113883",
            "value": "https://fhir-ehr.cerner.com/r4/da0b5d99-573c-4f5e-aaf6-8d39fa93d033/Observation/M-19362290937/_history/1"
          }
        ],
        "category": [
          {
            "coding": [
              {
                "system": "http://terminology.hl7.org/CodeSystem/observation-category",
                "code": "laboratory"
              }
            ]
          }
        ],
        "status": "final",
        "code": {
          "coding": [
            {
              "code": "770-8",
              "system": "http://loinc.org"
            }
          ]
        },
        "effectiveDateTime": "2022-04-28T01:22:00Z",
        "valueQuantity": {
          "value": 55.5,
          "unit": "%"
        },
        "interpretation": [
          {
            "coding": [
              {
                "code": "N",
                "display": "Normal",
                "system": "http://terminology.hl7.org/CodeSystem/v3-ObservationInterpretation"
              }
            ]
          }
        ],
        "subject": {
          "reference": "Patient/2dde8c35-e57c-4f3e-a77c-39e144e9deda"
        }
      },
      "request": {
        "method": "PUT",
        "url": "Observation/8f0e9015-e28d-c36e-3f61-ed64bf515634"
      }
    },
    {
      "fullUrl": "urn:uuid:3d7c936f-8bd6-02f7-25fa-00bc6e5313d6",
      "resource": {
        "resourceType": "DiagnosticReport",
        "id": "3d7c936f-8bd6-02f7-25fa-00bc6e5313d6",
        "identifier": [
          {
            "system": "urn:ietf:rfc:3986",
            "value": "urn:uuid:f1dcc1ef-4ac3-45a9-a8e0-4d87331fd7f6"
          }
        ],
        "status": "final",
        "code": {
          "coding": [
            {
              "code": "17861-6",
              "system": "http://loinc.org"
            }
          ]
        },
        "subject": {
          "reference": "Patient/2dde8c35-e57c-4f3e-a77c-39e144e9deda"
        },
        "result": [
          {
            "reference": "Observation/2b802bc7-24f4-8df3-e184-e2adfe1f532b"
          }
        ],
        "meta": {
          "source": [
            "ecr"
          ]
        }
      },
      "request": {
        "method": "PUT",
        "url": "DiagnosticReport/3d7c936f-8bd6-02f7-25fa-00bc6e5313d6"
      }
    },
    {
      "fullUrl": "urn:uuid:2b802bc7-24f4-8df3-e184-e2adfe1f532b",
      "resource": {
        "resourceType": "Observation",
        "id": "2b802bc7-24f4-8df3-e184-e2adfe1f532b",
        "meta": {
          "profile": [
            "http://hl7.org/fhir/us/core/StructureDefinition/us-core-observationresults"
          ],
          "source": [
            "ecr"
          ]
        },
        "identifier": [
          {
            "system": "urn:oid:2.16.840.1.113883",
            "value": "https://fhir-ehr.cerner.com/r4/da0b5d99-573c-4f5e-aaf6-8d39fa93d033/Observation/M-19362457408/_history/1"
          }
        ],
        "category": [
          {
            "coding": [
              {
                "system": "http://terminology.hl7.org/CodeSystem/observation-category",
                "code": "laboratory"
              }
            ]
          }
        ],
        "status": "final",
        "code": {
          "coding": [
            {
              "code": "17861-6",
              "system": "http://loinc.org"
            }
          ]
        },
        "effectiveDateTime": "2022-04-28T01:22:00Z",
        "valueQuantity": {
          "value": 8.8,
          "unit": "mg/dL"
        },
        "interpretation": [
          {
            "coding": [
              {
                "code": "N",
                "display": "Normal",
                "system": "http://terminology.hl7.org/CodeSystem/v3-ObservationInterpretation"
              }
            ]
          }
        ],
        "subject": {
          "reference": "Patient/2dde8c35-e57c-4f3e-a77c-39e144e9deda"
        }
      },
      "request": {
        "method": "PUT",
        "url": "Observation/2b802bc7-24f4-8df3-e184-e2adfe1f532b"
      }
    },
    {
      "fullUrl": "urn:uuid:0ee8fccf-850a-e215-fbe8-0d6ddc07f83b",
      "resource": {
        "resourceType": "DiagnosticReport",
        "id": "0ee8fccf-850a-e215-fbe8-0d6ddc07f83b",
        "identifier": [
          {
            "system": "urn:ietf:rfc:3986",
            "value": "urn:uuid:d2093b4e-d2ec-4b96-b06f-02d18dc08981"
          }
        ],
        "status": "final",
        "code": {
          "coding": [
            {
              "code": "53115-2",
              "system": "http://loinc.org"
            }
          ]
        },
        "subject": {
          "reference": "Patient/2dde8c35-e57c-4f3e-a77c-39e144e9deda"
        },
        "result": [
          {
            "reference": "Observation/12282b68-fe1f-9f1a-e0b1-3c2f5d5bdb78"
          }
        ],
        "meta": {
          "source": [
            "ecr"
          ]
        }
      },
      "request": {
        "method": "PUT",
        "url": "DiagnosticReport/0ee8fccf-850a-e215-fbe8-0d6ddc07f83b"
      }
    },
    {
      "fullUrl": "urn:uuid:12282b68-fe1f-9f1a-e0b1-3c2f5d5bdb78",
      "resource": {
        "resourceType": "Observation",
        "id": "12282b68-fe1f-9f1a-e0b1-3c2f5d5bdb78",
        "meta": {
          "profile": [
            "http://hl7.org/fhir/us/core/StructureDefinition/us-core-observationresults"
          ],
          "source": [
            "ecr"
          ]
        },
        "identifier": [
          {
            "system": "urn:oid:2.16.840.1.113883",
            "value": "https://fhir-ehr.cerner.com/r4/da0b5d99-573c-4f5e-aaf6-8d39fa93d033/Observation/M-19362290961/_history/1"
          }
        ],
        "category": [
          {
            "coding": [
              {
                "system": "http://terminology.hl7.org/CodeSystem/observation-category",
                "code": "laboratory"
              }
            ]
          }
        ],
        "status": "final",
        "code": {
          "coding": [
            {
              "code": "53115-2",
              "system": "http://loinc.org"
            }
          ]
        },
        "effectiveDateTime": "2022-04-28T01:22:00Z",
        "valueQuantity": {
          "value": 0.01,
          "unit": "x10e3/mcL"
        },
        "subject": {
          "reference": "Patient/2dde8c35-e57c-4f3e-a77c-39e144e9deda"
        }
      },
      "request": {
        "method": "PUT",
        "url": "Observation/12282b68-fe1f-9f1a-e0b1-3c2f5d5bdb78"
      }
    },
    {
      "fullUrl": "urn:uuid:3777d461-a73f-cd08-838d-c5d69dd5d924",
      "resource": {
        "resourceType": "DiagnosticReport",
        "id": "3777d461-a73f-cd08-838d-c5d69dd5d924",
        "identifier": [
          {
            "system": "urn:ietf:rfc:3986",
            "value": "urn:uuid:cc45cd2f-3ced-4cb0-8e39-0db932410cc1"
          }
        ],
        "status": "final",
        "code": {
          "coding": [
            {
              "code": "731-0",
              "system": "http://loinc.org"
            }
          ]
        },
        "subject": {
          "reference": "Patient/2dde8c35-e57c-4f3e-a77c-39e144e9deda"
        },
        "result": [
          {
            "reference": "Observation/7a6b8b43-f73a-2011-220c-18a359055a15"
          }
        ],
        "meta": {
          "source": [
            "ecr"
          ]
        }
      },
      "request": {
        "method": "PUT",
        "url": "DiagnosticReport/3777d461-a73f-cd08-838d-c5d69dd5d924"
      }
    },
    {
      "fullUrl": "urn:uuid:7a6b8b43-f73a-2011-220c-18a359055a15",
      "resource": {
        "resourceType": "Observation",
        "id": "7a6b8b43-f73a-2011-220c-18a359055a15",
        "meta": {
          "profile": [
            "http://hl7.org/fhir/us/core/StructureDefinition/us-core-observationresults"
          ],
          "source": [
            "ecr"
          ]
        },
        "identifier": [
          {
            "system": "urn:oid:2.16.840.1.113883",
            "value": "https://fhir-ehr.cerner.com/r4/da0b5d99-573c-4f5e-aaf6-8d39fa93d033/Observation/M-19362290953/_history/1"
          }
        ],
        "category": [
          {
            "coding": [
              {
                "system": "http://terminology.hl7.org/CodeSystem/observation-category",
                "code": "laboratory"
              }
            ]
          }
        ],
        "status": "final",
        "code": {
          "coding": [
            {
              "code": "731-0",
              "system": "http://loinc.org"
            }
          ]
        },
        "effectiveDateTime": "2022-04-28T01:22:00Z",
        "valueQuantity": {
          "value": 1.9,
          "unit": "x10e3/mcL"
        },
        "subject": {
          "reference": "Patient/2dde8c35-e57c-4f3e-a77c-39e144e9deda"
        }
      },
      "request": {
        "method": "PUT",
        "url": "Observation/7a6b8b43-f73a-2011-220c-18a359055a15"
      }
    },
    {
      "fullUrl": "urn:uuid:ee444047-3bbe-ef65-233f-012af32b4e71",
      "resource": {
        "resourceType": "DiagnosticReport",
        "id": "ee444047-3bbe-ef65-233f-012af32b4e71",
        "identifier": [
          {
            "system": "urn:ietf:rfc:3986",
            "value": "urn:uuid:947a9440-0ebf-47eb-9aa3-5f90b6372c5b"
          }
        ],
        "status": "final",
        "code": {
          "coding": [
            {
              "code": "5905-5",
              "system": "http://loinc.org"
            }
          ]
        },
        "subject": {
          "reference": "Patient/2dde8c35-e57c-4f3e-a77c-39e144e9deda"
        },
        "result": [
          {
            "reference": "Observation/8fd02067-f0b1-46ea-d394-ee66fd72514a"
          }
        ],
        "meta": {
          "source": [
            "ecr"
          ]
        }
      },
      "request": {
        "method": "PUT",
        "url": "DiagnosticReport/ee444047-3bbe-ef65-233f-012af32b4e71"
      }
    },
    {
      "fullUrl": "urn:uuid:8fd02067-f0b1-46ea-d394-ee66fd72514a",
      "resource": {
        "resourceType": "Observation",
        "id": "8fd02067-f0b1-46ea-d394-ee66fd72514a",
        "meta": {
          "profile": [
            "http://hl7.org/fhir/us/core/StructureDefinition/us-core-observationresults"
          ],
          "source": [
            "ecr"
          ]
        },
        "identifier": [
          {
            "system": "urn:oid:2.16.840.1.113883",
            "value": "https://fhir-ehr.cerner.com/r4/da0b5d99-573c-4f5e-aaf6-8d39fa93d033/Observation/M-19362290943/_history/1"
          }
        ],
        "category": [
          {
            "coding": [
              {
                "system": "http://terminology.hl7.org/CodeSystem/observation-category",
                "code": "laboratory"
              }
            ]
          }
        ],
        "status": "final",
        "code": {
          "coding": [
            {
              "code": "5905-5",
              "system": "http://loinc.org"
            }
          ]
        },
        "effectiveDateTime": "2022-04-28T01:22:00Z",
        "valueQuantity": {
          "value": 9.3,
          "unit": "%"
        },
        "interpretation": [
          {
            "coding": [
              {
                "code": "N",
                "display": "Normal",
                "system": "http://terminology.hl7.org/CodeSystem/v3-ObservationInterpretation"
              }
            ]
          }
        ],
        "subject": {
          "reference": "Patient/2dde8c35-e57c-4f3e-a77c-39e144e9deda"
        }
      },
      "request": {
        "method": "PUT",
        "url": "Observation/8fd02067-f0b1-46ea-d394-ee66fd72514a"
      }
    },
    {
      "fullUrl": "urn:uuid:d857dfa1-52dd-fc02-31a6-60b69d04bef2",
      "resource": {
        "resourceType": "DiagnosticReport",
        "id": "d857dfa1-52dd-fc02-31a6-60b69d04bef2",
        "identifier": [
          {
            "system": "urn:ietf:rfc:3986",
            "value": "urn:uuid:5ae6f10c-f497-4aa5-b324-22b3603021ec"
          }
        ],
        "status": "final",
        "code": {
          "coding": [
            {
              "code": "788-0",
              "system": "http://loinc.org"
            }
          ]
        },
        "subject": {
          "reference": "Patient/2dde8c35-e57c-4f3e-a77c-39e144e9deda"
        },
        "result": [
          {
            "reference": "Observation/fdb3509e-db88-3232-ba2d-d70e6340a2e8"
          }
        ],
        "meta": {
          "source": [
            "ecr"
          ]
        }
      },
      "request": {
        "method": "PUT",
        "url": "DiagnosticReport/d857dfa1-52dd-fc02-31a6-60b69d04bef2"
      }
    },
    {
      "fullUrl": "urn:uuid:fdb3509e-db88-3232-ba2d-d70e6340a2e8",
      "resource": {
        "resourceType": "Observation",
        "id": "fdb3509e-db88-3232-ba2d-d70e6340a2e8",
        "meta": {
          "profile": [
            "http://hl7.org/fhir/us/core/StructureDefinition/us-core-observationresults"
          ],
          "source": [
            "ecr"
          ]
        },
        "identifier": [
          {
            "system": "urn:oid:2.16.840.1.113883",
            "value": "https://fhir-ehr.cerner.com/r4/da0b5d99-573c-4f5e-aaf6-8d39fa93d033/Observation/M-19362290904/_history/1"
          }
        ],
        "category": [
          {
            "coding": [
              {
                "system": "http://terminology.hl7.org/CodeSystem/observation-category",
                "code": "laboratory"
              }
            ]
          }
        ],
        "status": "final",
        "code": {
          "coding": [
            {
              "code": "788-0",
              "system": "http://loinc.org"
            }
          ]
        },
        "effectiveDateTime": "2022-04-28T01:22:00Z",
        "valueQuantity": {
          "value": 13.9,
          "unit": "%"
        },
        "interpretation": [
          {
            "coding": [
              {
                "code": "N",
                "display": "Normal",
                "system": "http://terminology.hl7.org/CodeSystem/v3-ObservationInterpretation"
              }
            ]
          }
        ],
        "subject": {
          "reference": "Patient/2dde8c35-e57c-4f3e-a77c-39e144e9deda"
        }
      },
      "request": {
        "method": "PUT",
        "url": "Observation/fdb3509e-db88-3232-ba2d-d70e6340a2e8"
      }
    },
    {
      "fullUrl": "urn:uuid:8e84c86c-4dcd-49f3-c9f0-9c391a2d3f78",
      "resource": {
        "resourceType": "DiagnosticReport",
        "id": "8e84c86c-4dcd-49f3-c9f0-9c391a2d3f78",
        "identifier": [
          {
            "system": "urn:ietf:rfc:3986",
            "value": "urn:uuid:d77b33c3-3fd2-4e3c-8909-b210b5ec3170"
          }
        ],
        "status": "final",
        "code": {
          "coding": [
            {
              "code": "71695-1",
              "system": "http://loinc.org"
            }
          ]
        },
        "subject": {
          "reference": "Patient/2dde8c35-e57c-4f3e-a77c-39e144e9deda"
        },
        "result": [
          {
            "reference": "Observation/aa838a6e-c564-d6df-21b8-ca8e567ecce6"
          }
        ],
        "meta": {
          "source": [
            "ecr"
          ]
        }
      },
      "request": {
        "method": "PUT",
        "url": "DiagnosticReport/8e84c86c-4dcd-49f3-c9f0-9c391a2d3f78"
      }
    },
    {
      "fullUrl": "urn:uuid:aa838a6e-c564-d6df-21b8-ca8e567ecce6",
      "resource": {
        "resourceType": "Observation",
        "id": "aa838a6e-c564-d6df-21b8-ca8e567ecce6",
        "meta": {
          "profile": [
            "http://hl7.org/fhir/us/core/StructureDefinition/us-core-observationresults"
          ],
          "source": [
            "ecr"
          ]
        },
        "identifier": [
          {
            "system": "urn:oid:2.16.840.1.113883",
            "value": "https://fhir-ehr.cerner.com/r4/da0b5d99-573c-4f5e-aaf6-8d39fa93d033/Observation/M-19362290949/_history/1"
          }
        ],
        "category": [
          {
            "coding": [
              {
                "system": "http://terminology.hl7.org/CodeSystem/observation-category",
                "code": "laboratory"
              }
            ]
          }
        ],
        "status": "final",
        "code": {
          "coding": [
            {
              "code": "71695-1",
              "system": "http://loinc.org"
            }
          ]
        },
        "effectiveDateTime": "2022-04-28T01:22:00Z",
        "valueQuantity": {
          "value": 0.2,
          "unit": "%"
        },
        "interpretation": [
          {
            "coding": [
              {
                "code": "N",
                "display": "Normal",
                "system": "http://terminology.hl7.org/CodeSystem/v3-ObservationInterpretation"
              }
            ]
          }
        ],
        "subject": {
          "reference": "Patient/2dde8c35-e57c-4f3e-a77c-39e144e9deda"
        }
      },
      "request": {
        "method": "PUT",
        "url": "Observation/aa838a6e-c564-d6df-21b8-ca8e567ecce6"
      }
    },
    {
      "fullUrl": "urn:uuid:551ff8e1-18b2-cef2-5679-073ab17ed2da",
      "resource": {
        "resourceType": "DiagnosticReport",
        "id": "551ff8e1-18b2-cef2-5679-073ab17ed2da",
        "identifier": [
          {
            "system": "urn:ietf:rfc:3986",
            "value": "urn:uuid:02d76ec5-8f40-44f2-8229-def44ca1e80e"
          }
        ],
        "status": "final",
        "code": {
          "coding": [
            {
              "code": "711-2",
              "system": "http://loinc.org"
            }
          ]
        },
        "subject": {
          "reference": "Patient/2dde8c35-e57c-4f3e-a77c-39e144e9deda"
        },
        "result": [
          {
            "reference": "Observation/2bca8b00-b5ac-6900-fe28-635bf5f0974a"
          }
        ],
        "meta": {
          "source": [
            "ecr"
          ]
        }
      },
      "request": {
        "method": "PUT",
        "url": "DiagnosticReport/551ff8e1-18b2-cef2-5679-073ab17ed2da"
      }
    },
    {
      "fullUrl": "urn:uuid:2bca8b00-b5ac-6900-fe28-635bf5f0974a",
      "resource": {
        "resourceType": "Observation",
        "id": "2bca8b00-b5ac-6900-fe28-635bf5f0974a",
        "meta": {
          "profile": [
            "http://hl7.org/fhir/us/core/StructureDefinition/us-core-observationresults"
          ],
          "source": [
            "ecr"
          ]
        },
        "identifier": [
          {
            "system": "urn:oid:2.16.840.1.113883",
            "value": "https://fhir-ehr.cerner.com/r4/da0b5d99-573c-4f5e-aaf6-8d39fa93d033/Observation/M-19362290957/_history/1"
          }
        ],
        "category": [
          {
            "coding": [
              {
                "system": "http://terminology.hl7.org/CodeSystem/observation-category",
                "code": "laboratory"
              }
            ]
          }
        ],
        "status": "final",
        "code": {
          "coding": [
            {
              "code": "711-2",
              "system": "http://loinc.org"
            }
          ]
        },
        "effectiveDateTime": "2022-04-28T01:22:00Z",
        "valueQuantity": {
          "value": 0.1,
          "unit": "x10e3/mcL"
        },
        "subject": {
          "reference": "Patient/2dde8c35-e57c-4f3e-a77c-39e144e9deda"
        }
      },
      "request": {
        "method": "PUT",
        "url": "Observation/2bca8b00-b5ac-6900-fe28-635bf5f0974a"
      }
    },
    {
      "fullUrl": "urn:uuid:22b0e725-c8ec-c070-51ec-8de4e7336c96",
      "resource": {
        "resourceType": "DiagnosticReport",
        "id": "22b0e725-c8ec-c070-51ec-8de4e7336c96",
        "identifier": [
          {
            "system": "urn:ietf:rfc:3986",
            "value": "urn:uuid:866df8cb-c344-47d9-bef9-1142156f40e2"
          }
        ],
        "status": "final",
        "code": {
          "coding": [
            {
              "code": "2075-0",
              "system": "http://loinc.org"
            }
          ]
        },
        "subject": {
          "reference": "Patient/2dde8c35-e57c-4f3e-a77c-39e144e9deda"
        },
        "result": [
          {
            "reference": "Observation/2f952f74-6d12-1deb-2393-d2d7fba77f2a"
          }
        ],
        "meta": {
          "source": [
            "ecr"
          ]
        }
      },
      "request": {
        "method": "PUT",
        "url": "DiagnosticReport/22b0e725-c8ec-c070-51ec-8de4e7336c96"
      }
    },
    {
      "fullUrl": "urn:uuid:2f952f74-6d12-1deb-2393-d2d7fba77f2a",
      "resource": {
        "resourceType": "Observation",
        "id": "2f952f74-6d12-1deb-2393-d2d7fba77f2a",
        "meta": {
          "profile": [
            "http://hl7.org/fhir/us/core/StructureDefinition/us-core-observationresults"
          ],
          "source": [
            "ecr"
          ]
        },
        "identifier": [
          {
            "system": "urn:oid:2.16.840.1.113883",
            "value": "https://fhir-ehr.cerner.com/r4/da0b5d99-573c-4f5e-aaf6-8d39fa93d033/Observation/M-19362457400/_history/1"
          }
        ],
        "category": [
          {
            "coding": [
              {
                "system": "http://terminology.hl7.org/CodeSystem/observation-category",
                "code": "laboratory"
              }
            ]
          }
        ],
        "status": "final",
        "code": {
          "coding": [
            {
              "code": "2075-0",
              "system": "http://loinc.org"
            }
          ]
        },
        "effectiveDateTime": "2022-04-28T01:22:00Z",
        "valueQuantity": {
          "value": 106,
          "unit": "mmol/L"
        },
        "interpretation": [
          {
            "coding": [
              {
                "code": "N",
                "display": "Normal",
                "system": "http://terminology.hl7.org/CodeSystem/v3-ObservationInterpretation"
              }
            ]
          }
        ],
        "subject": {
          "reference": "Patient/2dde8c35-e57c-4f3e-a77c-39e144e9deda"
        }
      },
      "request": {
        "method": "PUT",
        "url": "Observation/2f952f74-6d12-1deb-2393-d2d7fba77f2a"
      }
    },
    {
      "fullUrl": "urn:uuid:bdd751c1-4761-cc14-6e7c-657310d40176",
      "resource": {
        "resourceType": "DiagnosticReport",
        "id": "bdd751c1-4761-cc14-6e7c-657310d40176",
        "identifier": [
          {
            "system": "urn:ietf:rfc:3986",
            "value": "urn:uuid:f8525b11-8672-46e0-a17d-e7412473ac89"
          }
        ],
        "status": "final",
        "code": {
          "coding": [
            {
              "code": "3094-0",
              "system": "http://loinc.org"
            }
          ]
        },
        "subject": {
          "reference": "Patient/2dde8c35-e57c-4f3e-a77c-39e144e9deda"
        },
        "result": [
          {
            "reference": "Observation/62793ca4-9aaf-8a75-2732-0ed3cac94491"
          }
        ],
        "meta": {
          "source": [
            "ecr"
          ]
        }
      },
      "request": {
        "method": "PUT",
        "url": "DiagnosticReport/bdd751c1-4761-cc14-6e7c-657310d40176"
      }
    },
    {
      "fullUrl": "urn:uuid:62793ca4-9aaf-8a75-2732-0ed3cac94491",
      "resource": {
        "resourceType": "Observation",
        "id": "62793ca4-9aaf-8a75-2732-0ed3cac94491",
        "meta": {
          "profile": [
            "http://hl7.org/fhir/us/core/StructureDefinition/us-core-observationresults"
          ],
          "source": [
            "ecr"
          ]
        },
        "identifier": [
          {
            "system": "urn:oid:2.16.840.1.113883",
            "value": "https://fhir-ehr.cerner.com/r4/da0b5d99-573c-4f5e-aaf6-8d39fa93d033/Observation/M-19362457390/_history/1"
          }
        ],
        "category": [
          {
            "coding": [
              {
                "system": "http://terminology.hl7.org/CodeSystem/observation-category",
                "code": "laboratory"
              }
            ]
          }
        ],
        "status": "final",
        "code": {
          "coding": [
            {
              "code": "3094-0",
              "system": "http://loinc.org"
            }
          ]
        },
        "effectiveDateTime": "2022-04-28T01:22:00Z",
        "valueQuantity": {
          "value": 20,
          "unit": "mg/dL"
        },
        "interpretation": [
          {
            "coding": [
              {
                "code": "H",
                "display": "High",
                "system": "http://terminology.hl7.org/CodeSystem/v3-ObservationInterpretation"
              }
            ]
          }
        ],
        "subject": {
          "reference": "Patient/2dde8c35-e57c-4f3e-a77c-39e144e9deda"
        }
      },
      "request": {
        "method": "PUT",
        "url": "Observation/62793ca4-9aaf-8a75-2732-0ed3cac94491"
      }
    },
    {
      "fullUrl": "urn:uuid:6f30e954-5ca8-0c35-e607-a614779ffbeb",
      "resource": {
        "resourceType": "DiagnosticReport",
        "id": "6f30e954-5ca8-0c35-e607-a614779ffbeb",
        "identifier": [
          {
            "system": "urn:ietf:rfc:3986",
            "value": "urn:uuid:b8ec2bf7-4b65-40e1-b8a4-674f581104b5"
          }
        ],
        "status": "final",
        "code": {
          "coding": [
            {
              "code": "777-3",
              "system": "http://loinc.org"
            }
          ]
        },
        "subject": {
          "reference": "Patient/2dde8c35-e57c-4f3e-a77c-39e144e9deda"
        },
        "result": [
          {
            "reference": "Observation/715f21b6-308e-0b63-0433-8ed0f69e3e7a"
          }
        ],
        "meta": {
          "source": [
            "ecr"
          ]
        }
      },
      "request": {
        "method": "PUT",
        "url": "DiagnosticReport/6f30e954-5ca8-0c35-e607-a614779ffbeb"
      }
    },
    {
      "fullUrl": "urn:uuid:715f21b6-308e-0b63-0433-8ed0f69e3e7a",
      "resource": {
        "resourceType": "Observation",
        "id": "715f21b6-308e-0b63-0433-8ed0f69e3e7a",
        "meta": {
          "profile": [
            "http://hl7.org/fhir/us/core/StructureDefinition/us-core-observationresults"
          ],
          "source": [
            "ecr"
          ]
        },
        "identifier": [
          {
            "system": "urn:oid:2.16.840.1.113883",
            "value": "https://fhir-ehr.cerner.com/r4/da0b5d99-573c-4f5e-aaf6-8d39fa93d033/Observation/M-19362290907/_history/1"
          }
        ],
        "category": [
          {
            "coding": [
              {
                "system": "http://terminology.hl7.org/CodeSystem/observation-category",
                "code": "laboratory"
              }
            ]
          }
        ],
        "status": "final",
        "code": {
          "coding": [
            {
              "code": "777-3",
              "system": "http://loinc.org"
            }
          ]
        },
        "effectiveDateTime": "2022-04-28T01:22:00Z",
        "valueQuantity": {
          "value": 231,
          "unit": "x10e3/mcL"
        },
        "interpretation": [
          {
            "coding": [
              {
                "code": "N",
                "display": "Normal",
                "system": "http://terminology.hl7.org/CodeSystem/v3-ObservationInterpretation"
              }
            ]
          }
        ],
        "subject": {
          "reference": "Patient/2dde8c35-e57c-4f3e-a77c-39e144e9deda"
        }
      },
      "request": {
        "method": "PUT",
        "url": "Observation/715f21b6-308e-0b63-0433-8ed0f69e3e7a"
      }
    },
    {
      "fullUrl": "urn:uuid:4f46fbc4-7fa5-0669-cff6-4fd21ef5eed1",
      "resource": {
        "resourceType": "DiagnosticReport",
        "id": "4f46fbc4-7fa5-0669-cff6-4fd21ef5eed1",
        "identifier": [
          {
            "system": "urn:ietf:rfc:3986",
            "value": "urn:uuid:23ae237f-c6cd-4083-a7c4-fc3ead93e55b"
          }
        ],
        "status": "final",
        "code": {
          "coding": [
            {
              "code": "6690-2",
              "system": "http://loinc.org"
            }
          ]
        },
        "subject": {
          "reference": "Patient/2dde8c35-e57c-4f3e-a77c-39e144e9deda"
        },
        "result": [
          {
            "reference": "Observation/bc6add5f-8906-87be-efad-fe7c26e5c511"
          }
        ],
        "meta": {
          "source": [
            "ecr"
          ]
        }
      },
      "request": {
        "method": "PUT",
        "url": "DiagnosticReport/4f46fbc4-7fa5-0669-cff6-4fd21ef5eed1"
      }
    },
    {
      "fullUrl": "urn:uuid:bc6add5f-8906-87be-efad-fe7c26e5c511",
      "resource": {
        "resourceType": "Observation",
        "id": "bc6add5f-8906-87be-efad-fe7c26e5c511",
        "meta": {
          "profile": [
            "http://hl7.org/fhir/us/core/StructureDefinition/us-core-observationresults"
          ],
          "source": [
            "ecr"
          ]
        },
        "identifier": [
          {
            "system": "urn:oid:2.16.840.1.113883",
            "value": "https://fhir-ehr.cerner.com/r4/da0b5d99-573c-4f5e-aaf6-8d39fa93d033/Observation/M-19362290882/_history/1"
          }
        ],
        "category": [
          {
            "coding": [
              {
                "system": "http://terminology.hl7.org/CodeSystem/observation-category",
                "code": "laboratory"
              }
            ]
          }
        ],
        "status": "final",
        "code": {
          "coding": [
            {
              "code": "6690-2",
              "system": "http://loinc.org"
            }
          ]
        },
        "effectiveDateTime": "2022-04-28T01:22:00Z",
        "valueQuantity": {
          "value": 5.9,
          "unit": "x10e3/mcL"
        },
        "interpretation": [
          {
            "coding": [
              {
                "code": "N",
                "display": "Normal",
                "system": "http://terminology.hl7.org/CodeSystem/v3-ObservationInterpretation"
              }
            ]
          }
        ],
        "subject": {
          "reference": "Patient/2dde8c35-e57c-4f3e-a77c-39e144e9deda"
        }
      },
      "request": {
        "method": "PUT",
        "url": "Observation/bc6add5f-8906-87be-efad-fe7c26e5c511"
      }
    },
    {
      "fullUrl": "urn:uuid:0bb63925-9cc8-b526-da33-97ae9d1a332d",
      "resource": {
        "resourceType": "DiagnosticReport",
        "id": "0bb63925-9cc8-b526-da33-97ae9d1a332d",
        "identifier": [
          {
            "system": "urn:ietf:rfc:3986",
            "value": "urn:uuid:a5504ebc-fd8a-45eb-be1d-92da4742e17a"
          }
        ],
        "status": "final",
        "code": {
          "coding": [
            {
              "code": "2885-2",
              "system": "http://loinc.org"
            }
          ]
        },
        "subject": {
          "reference": "Patient/2dde8c35-e57c-4f3e-a77c-39e144e9deda"
        },
        "result": [
          {
            "reference": "Observation/a7c13226-2547-f0bd-79ea-0be4320a51c5"
          }
        ],
        "meta": {
          "source": [
            "ecr"
          ]
        }
      },
      "request": {
        "method": "PUT",
        "url": "DiagnosticReport/0bb63925-9cc8-b526-da33-97ae9d1a332d"
      }
    },
    {
      "fullUrl": "urn:uuid:a7c13226-2547-f0bd-79ea-0be4320a51c5",
      "resource": {
        "resourceType": "Observation",
        "id": "a7c13226-2547-f0bd-79ea-0be4320a51c5",
        "meta": {
          "profile": [
            "http://hl7.org/fhir/us/core/StructureDefinition/us-core-observationresults"
          ],
          "source": [
            "ecr"
          ]
        },
        "identifier": [
          {
            "system": "urn:oid:2.16.840.1.113883",
            "value": "https://fhir-ehr.cerner.com/r4/da0b5d99-573c-4f5e-aaf6-8d39fa93d033/Observation/M-19362457424/_history/1"
          }
        ],
        "category": [
          {
            "coding": [
              {
                "system": "http://terminology.hl7.org/CodeSystem/observation-category",
                "code": "laboratory"
              }
            ]
          }
        ],
        "status": "final",
        "code": {
          "coding": [
            {
              "code": "2885-2",
              "system": "http://loinc.org"
            }
          ]
        },
        "effectiveDateTime": "2022-04-28T01:22:00Z",
        "valueQuantity": {
          "value": 7.8,
          "unit": "gm/dL"
        },
        "interpretation": [
          {
            "coding": [
              {
                "code": "N",
                "display": "Normal",
                "system": "http://terminology.hl7.org/CodeSystem/v3-ObservationInterpretation"
              }
            ]
          }
        ],
        "subject": {
          "reference": "Patient/2dde8c35-e57c-4f3e-a77c-39e144e9deda"
        }
      },
      "request": {
        "method": "PUT",
        "url": "Observation/a7c13226-2547-f0bd-79ea-0be4320a51c5"
      }
    },
    {
      "fullUrl": "urn:uuid:935ae2e2-1312-fdf4-f1ff-69b2aa2889fc",
      "resource": {
        "resourceType": "DiagnosticReport",
        "id": "935ae2e2-1312-fdf4-f1ff-69b2aa2889fc",
        "identifier": [
          {
            "system": "urn:ietf:rfc:3986",
            "value": "urn:uuid:eb9ba667-221b-44cb-8184-87bd5c463c04"
          }
        ],
        "status": "final",
        "code": {
          "coding": [
            {
              "code": "789-8",
              "system": "http://loinc.org"
            }
          ]
        },
        "subject": {
          "reference": "Patient/2dde8c35-e57c-4f3e-a77c-39e144e9deda"
        },
        "result": [
          {
            "reference": "Observation/41b0400c-862e-c9ee-67c6-983f3cfd964f"
          }
        ],
        "meta": {
          "source": [
            "ecr"
          ]
        }
      },
      "request": {
        "method": "PUT",
        "url": "DiagnosticReport/935ae2e2-1312-fdf4-f1ff-69b2aa2889fc"
      }
    },
    {
      "fullUrl": "urn:uuid:41b0400c-862e-c9ee-67c6-983f3cfd964f",
      "resource": {
        "resourceType": "Observation",
        "id": "41b0400c-862e-c9ee-67c6-983f3cfd964f",
        "meta": {
          "profile": [
            "http://hl7.org/fhir/us/core/StructureDefinition/us-core-observationresults"
          ],
          "source": [
            "ecr"
          ]
        },
        "identifier": [
          {
            "system": "urn:oid:2.16.840.1.113883",
            "value": "https://fhir-ehr.cerner.com/r4/da0b5d99-573c-4f5e-aaf6-8d39fa93d033/Observation/M-19362290886/_history/1"
          }
        ],
        "category": [
          {
            "coding": [
              {
                "system": "http://terminology.hl7.org/CodeSystem/observation-category",
                "code": "laboratory"
              }
            ]
          }
        ],
        "status": "final",
        "code": {
          "coding": [
            {
              "code": "789-8",
              "system": "http://loinc.org"
            }
          ]
        },
        "effectiveDateTime": "2022-04-28T01:22:00Z",
        "valueQuantity": {
          "value": 4.01,
          "unit": "x10e6/mcL"
        },
        "interpretation": [
          {
            "coding": [
              {
                "code": "L",
                "display": "Low",
                "system": "http://terminology.hl7.org/CodeSystem/v3-ObservationInterpretation"
              }
            ]
          }
        ],
        "subject": {
          "reference": "Patient/2dde8c35-e57c-4f3e-a77c-39e144e9deda"
        }
      },
      "request": {
        "method": "PUT",
        "url": "Observation/41b0400c-862e-c9ee-67c6-983f3cfd964f"
      }
    },
    {
      "fullUrl": "urn:uuid:0627396c-2016-5bba-9d1d-e8edb35cd38f",
      "resource": {
        "resourceType": "DiagnosticReport",
        "id": "0627396c-2016-5bba-9d1d-e8edb35cd38f",
        "identifier": [
          {
            "system": "urn:ietf:rfc:3986",
            "value": "urn:uuid:f530897b-da6f-4604-a817-f163f0e15d09"
          }
        ],
        "status": "final",
        "code": {
          "coding": [
            {
              "code": "5902-2",
              "system": "http://loinc.org"
            }
          ]
        },
        "subject": {
          "reference": "Patient/2dde8c35-e57c-4f3e-a77c-39e144e9deda"
        },
        "result": [
          {
            "reference": "Observation/beb7ccd8-9f0e-ba7d-84c5-a651cd44d9f2"
          }
        ],
        "meta": {
          "source": [
            "ecr"
          ]
        }
      },
      "request": {
        "method": "PUT",
        "url": "DiagnosticReport/0627396c-2016-5bba-9d1d-e8edb35cd38f"
      }
    },
    {
      "fullUrl": "urn:uuid:beb7ccd8-9f0e-ba7d-84c5-a651cd44d9f2",
      "resource": {
        "resourceType": "Observation",
        "id": "beb7ccd8-9f0e-ba7d-84c5-a651cd44d9f2",
        "meta": {
          "profile": [
            "http://hl7.org/fhir/us/core/StructureDefinition/us-core-observationresults"
          ],
          "source": [
            "ecr"
          ]
        },
        "identifier": [
          {
            "system": "urn:oid:2.16.840.1.113883",
            "value": "https://fhir-ehr.cerner.com/r4/da0b5d99-573c-4f5e-aaf6-8d39fa93d033/Observation/M-19362384021/_history/1"
          }
        ],
        "category": [
          {
            "coding": [
              {
                "system": "http://terminology.hl7.org/CodeSystem/observation-category",
                "code": "laboratory"
              }
            ]
          }
        ],
        "status": "final",
        "code": {
          "coding": [
            {
              "code": "5902-2",
              "system": "http://loinc.org"
            }
          ]
        },
        "effectiveDateTime": "2022-04-28T01:22:00Z",
        "valueQuantity": {
          "value": 11.3,
          "unit": "Seconds"
        },
        "interpretation": [
          {
            "coding": [
              {
                "code": "N",
                "display": "Normal",
                "system": "http://terminology.hl7.org/CodeSystem/v3-ObservationInterpretation"
              }
            ]
          }
        ],
        "subject": {
          "reference": "Patient/2dde8c35-e57c-4f3e-a77c-39e144e9deda"
        }
      },
      "request": {
        "method": "PUT",
        "url": "Observation/beb7ccd8-9f0e-ba7d-84c5-a651cd44d9f2"
      }
    },
    {
      "fullUrl": "urn:uuid:49a60ef3-3d68-482a-aad3-590b2027e802",
      "resource": {
        "resourceType": "DiagnosticReport",
        "id": "49a60ef3-3d68-482a-aad3-590b2027e802",
        "identifier": [
          {
            "system": "urn:ietf:rfc:3986",
            "value": "urn:uuid:fba5adea-8a38-41fc-b916-5cc5ba5c7d8e"
          }
        ],
        "status": "final",
        "code": {
          "coding": [
            {
              "code": "32623-1",
              "system": "http://loinc.org"
            }
          ]
        },
        "subject": {
          "reference": "Patient/2dde8c35-e57c-4f3e-a77c-39e144e9deda"
        },
        "result": [
          {
            "reference": "Observation/b7081edc-8ee8-40c8-38d7-561599d05939"
          }
        ],
        "meta": {
          "source": [
            "ecr"
          ]
        }
      },
      "request": {
        "method": "PUT",
        "url": "DiagnosticReport/49a60ef3-3d68-482a-aad3-590b2027e802"
      }
    },
    {
      "fullUrl": "urn:uuid:b7081edc-8ee8-40c8-38d7-561599d05939",
      "resource": {
        "resourceType": "Observation",
        "id": "b7081edc-8ee8-40c8-38d7-561599d05939",
        "meta": {
          "profile": [
            "http://hl7.org/fhir/us/core/StructureDefinition/us-core-observationresults"
          ],
          "source": [
            "ecr"
          ]
        },
        "identifier": [
          {
            "system": "urn:oid:2.16.840.1.113883",
            "value": "https://fhir-ehr.cerner.com/r4/da0b5d99-573c-4f5e-aaf6-8d39fa93d033/Observation/M-19362290913/_history/1"
          }
        ],
        "category": [
          {
            "coding": [
              {
                "system": "http://terminology.hl7.org/CodeSystem/observation-category",
                "code": "laboratory"
              }
            ]
          }
        ],
        "status": "final",
        "code": {
          "coding": [
            {
              "code": "32623-1",
              "system": "http://loinc.org"
            }
          ]
        },
        "effectiveDateTime": "2022-04-28T01:22:00Z",
        "valueQuantity": {
          "value": 11.7,
          "unit": "Femtoliters"
        },
        "interpretation": [
          {
            "coding": [
              {
                "code": "H",
                "display": "High",
                "system": "http://terminology.hl7.org/CodeSystem/v3-ObservationInterpretation"
              }
            ]
          }
        ],
        "subject": {
          "reference": "Patient/2dde8c35-e57c-4f3e-a77c-39e144e9deda"
        }
      },
      "request": {
        "method": "PUT",
        "url": "Observation/b7081edc-8ee8-40c8-38d7-561599d05939"
      }
    },
    {
      "fullUrl": "urn:uuid:81bcb89b-2c9b-bfd2-4f1a-2c9d0808fd7d",
      "resource": {
        "resourceType": "DiagnosticReport",
        "id": "81bcb89b-2c9b-bfd2-4f1a-2c9d0808fd7d",
        "identifier": [
          {
            "system": "urn:ietf:rfc:3986",
            "value": "urn:uuid:76e26511-c6d0-4271-820b-352b2e7dab93"
          }
        ],
        "status": "final",
        "code": {
          "coding": [
            {
              "code": "787-2",
              "system": "http://loinc.org"
            }
          ]
        },
        "subject": {
          "reference": "Patient/2dde8c35-e57c-4f3e-a77c-39e144e9deda"
        },
        "result": [
          {
            "reference": "Observation/0ae0a811-d3d7-e016-a19b-6f8439a9a356"
          }
        ],
        "meta": {
          "source": [
            "ecr"
          ]
        }
      },
      "request": {
        "method": "PUT",
        "url": "DiagnosticReport/81bcb89b-2c9b-bfd2-4f1a-2c9d0808fd7d"
      }
    },
    {
      "fullUrl": "urn:uuid:0ae0a811-d3d7-e016-a19b-6f8439a9a356",
      "resource": {
        "resourceType": "Observation",
        "id": "0ae0a811-d3d7-e016-a19b-6f8439a9a356",
        "meta": {
          "profile": [
            "http://hl7.org/fhir/us/core/StructureDefinition/us-core-observationresults"
          ],
          "source": [
            "ecr"
          ]
        },
        "identifier": [
          {
            "system": "urn:oid:2.16.840.1.113883",
            "value": "https://fhir-ehr.cerner.com/r4/da0b5d99-573c-4f5e-aaf6-8d39fa93d033/Observation/M-19362290896/_history/1"
          }
        ],
        "category": [
          {
            "coding": [
              {
                "system": "http://terminology.hl7.org/CodeSystem/observation-category",
                "code": "laboratory"
              }
            ]
          }
        ],
        "status": "final",
        "code": {
          "coding": [
            {
              "code": "787-2",
              "system": "http://loinc.org"
            }
          ]
        },
        "effectiveDateTime": "2022-04-28T01:22:00Z",
        "valueQuantity": {
          "value": 93.8,
          "unit": "Femtoliters"
        },
        "interpretation": [
          {
            "coding": [
              {
                "code": "N",
                "display": "Normal",
                "system": "http://terminology.hl7.org/CodeSystem/v3-ObservationInterpretation"
              }
            ]
          }
        ],
        "subject": {
          "reference": "Patient/2dde8c35-e57c-4f3e-a77c-39e144e9deda"
        }
      },
      "request": {
        "method": "PUT",
        "url": "Observation/0ae0a811-d3d7-e016-a19b-6f8439a9a356"
      }
    },
    {
      "fullUrl": "urn:uuid:3eb1da10-714b-6909-8f34-ccb848ecd5a2",
      "resource": {
        "resourceType": "DiagnosticReport",
        "id": "3eb1da10-714b-6909-8f34-ccb848ecd5a2",
        "identifier": [
          {
            "system": "urn:ietf:rfc:3986",
            "value": "urn:uuid:b965e2be-c71e-47c5-8692-1041cdc50deb"
          }
        ],
        "status": "final",
        "code": {
          "coding": [
            {
              "code": "786-4",
              "system": "http://loinc.org"
            }
          ]
        },
        "subject": {
          "reference": "Patient/2dde8c35-e57c-4f3e-a77c-39e144e9deda"
        },
        "result": [
          {
            "reference": "Observation/ebfabe54-9b80-50f7-6367-84c72983d676"
          }
        ],
        "meta": {
          "source": [
            "ecr"
          ]
        }
      },
      "request": {
        "method": "PUT",
        "url": "DiagnosticReport/3eb1da10-714b-6909-8f34-ccb848ecd5a2"
      }
    },
    {
      "fullUrl": "urn:uuid:ebfabe54-9b80-50f7-6367-84c72983d676",
      "resource": {
        "resourceType": "Observation",
        "id": "ebfabe54-9b80-50f7-6367-84c72983d676",
        "meta": {
          "profile": [
            "http://hl7.org/fhir/us/core/StructureDefinition/us-core-observationresults"
          ],
          "source": [
            "ecr"
          ]
        },
        "identifier": [
          {
            "system": "urn:oid:2.16.840.1.113883",
            "value": "https://fhir-ehr.cerner.com/r4/da0b5d99-573c-4f5e-aaf6-8d39fa93d033/Observation/M-19362290900/_history/1"
          }
        ],
        "category": [
          {
            "coding": [
              {
                "system": "http://terminology.hl7.org/CodeSystem/observation-category",
                "code": "laboratory"
              }
            ]
          }
        ],
        "status": "final",
        "code": {
          "coding": [
            {
              "code": "786-4",
              "system": "http://loinc.org"
            }
          ]
        },
        "effectiveDateTime": "2022-04-28T01:22:00Z",
        "valueQuantity": {
          "value": 31.9,
          "unit": "gm/dL"
        },
        "interpretation": [
          {
            "coding": [
              {
                "code": "L",
                "display": "Low",
                "system": "http://terminology.hl7.org/CodeSystem/v3-ObservationInterpretation"
              }
            ]
          }
        ],
        "subject": {
          "reference": "Patient/2dde8c35-e57c-4f3e-a77c-39e144e9deda"
        }
      },
      "request": {
        "method": "PUT",
        "url": "Observation/ebfabe54-9b80-50f7-6367-84c72983d676"
      }
    },
    {
      "fullUrl": "urn:uuid:e48ce4fc-64b8-76d9-e2c7-59cb312606c5",
      "resource": {
        "resourceType": "DiagnosticReport",
        "id": "e48ce4fc-64b8-76d9-e2c7-59cb312606c5",
        "identifier": [
          {
            "system": "urn:ietf:rfc:3986",
            "value": "urn:uuid:b4faf8d4-8c5e-4c79-98eb-8f1a9bc65389"
          }
        ],
        "status": "final",
        "code": {
          "coding": [
            {
              "code": "785-6",
              "system": "http://loinc.org"
            }
          ]
        },
        "subject": {
          "reference": "Patient/2dde8c35-e57c-4f3e-a77c-39e144e9deda"
        },
        "result": [
          {
            "reference": "Observation/aead0f9e-23b8-edbe-2003-a34bacda273c"
          }
        ],
        "meta": {
          "source": [
            "ecr"
          ]
        }
      },
      "request": {
        "method": "PUT",
        "url": "DiagnosticReport/e48ce4fc-64b8-76d9-e2c7-59cb312606c5"
      }
    },
    {
      "fullUrl": "urn:uuid:aead0f9e-23b8-edbe-2003-a34bacda273c",
      "resource": {
        "resourceType": "Observation",
        "id": "aead0f9e-23b8-edbe-2003-a34bacda273c",
        "meta": {
          "profile": [
            "http://hl7.org/fhir/us/core/StructureDefinition/us-core-observationresults"
          ],
          "source": [
            "ecr"
          ]
        },
        "identifier": [
          {
            "system": "urn:oid:2.16.840.1.113883",
            "value": "https://fhir-ehr.cerner.com/r4/da0b5d99-573c-4f5e-aaf6-8d39fa93d033/Observation/M-19362290898/_history/1"
          }
        ],
        "category": [
          {
            "coding": [
              {
                "system": "http://terminology.hl7.org/CodeSystem/observation-category",
                "code": "laboratory"
              }
            ]
          }
        ],
        "status": "final",
        "code": {
          "coding": [
            {
              "code": "785-6",
              "system": "http://loinc.org"
            }
          ]
        },
        "effectiveDateTime": "2022-04-28T01:22:00Z",
        "valueQuantity": {
          "value": 29.9,
          "unit": "pg"
        },
        "interpretation": [
          {
            "coding": [
              {
                "code": "N",
                "display": "Normal",
                "system": "http://terminology.hl7.org/CodeSystem/v3-ObservationInterpretation"
              }
            ]
          }
        ],
        "subject": {
          "reference": "Patient/2dde8c35-e57c-4f3e-a77c-39e144e9deda"
        }
      },
      "request": {
        "method": "PUT",
        "url": "Observation/aead0f9e-23b8-edbe-2003-a34bacda273c"
      }
    },
    {
      "fullUrl": "urn:uuid:e5a6b1d0-b511-11f0-812f-fd538ef24c81",
      "resource": {
        "resourceType": "DiagnosticReport",
        "id": "e5a6b1d0-b511-11f0-812f-fd538ef24c81",
        "identifier": [
          {
            "system": "urn:ietf:rfc:3986",
            "value": "urn:uuid:d120352c-5f35-4187-b609-840842c2fe10"
          }
        ],
        "status": "final",
        "code": {
          "coding": [
            {
              "code": "718-7",
              "system": "http://loinc.org"
            }
          ]
        },
        "subject": {
          "reference": "Patient/2dde8c35-e57c-4f3e-a77c-39e144e9deda"
        },
        "result": [
          {
            "reference": "Observation/dbcf1a4e-9170-ae01-a0ef-c8e92869f391"
          }
        ],
        "meta": {
          "source": [
            "ecr"
          ]
        }
      },
      "request": {
        "method": "PUT",
        "url": "DiagnosticReport/e5a6b1d0-b511-11f0-812f-fd538ef24c81"
      }
    },
    {
      "fullUrl": "urn:uuid:dbcf1a4e-9170-ae01-a0ef-c8e92869f391",
      "resource": {
        "resourceType": "Observation",
        "id": "dbcf1a4e-9170-ae01-a0ef-c8e92869f391",
        "meta": {
          "profile": [
            "http://hl7.org/fhir/us/core/StructureDefinition/us-core-observationresults"
          ],
          "source": [
            "ecr"
          ]
        },
        "identifier": [
          {
            "system": "urn:oid:2.16.840.1.113883",
            "value": "https://fhir-ehr.cerner.com/r4/da0b5d99-573c-4f5e-aaf6-8d39fa93d033/Observation/M-19362290888/_history/1"
          }
        ],
        "category": [
          {
            "coding": [
              {
                "system": "http://terminology.hl7.org/CodeSystem/observation-category",
                "code": "laboratory"
              }
            ]
          }
        ],
        "status": "final",
        "code": {
          "coding": [
            {
              "code": "718-7",
              "system": "http://loinc.org"
            }
          ]
        },
        "effectiveDateTime": "2022-04-28T01:22:00Z",
        "valueQuantity": {
          "value": 12.0,
          "unit": "gm/dL"
        },
        "interpretation": [
          {
            "coding": [
              {
                "code": "N",
                "display": "Normal",
                "system": "http://terminology.hl7.org/CodeSystem/v3-ObservationInterpretation"
              }
            ]
          }
        ],
        "subject": {
          "reference": "Patient/2dde8c35-e57c-4f3e-a77c-39e144e9deda"
        }
      },
      "request": {
        "method": "PUT",
        "url": "Observation/dbcf1a4e-9170-ae01-a0ef-c8e92869f391"
      }
    },
    {
      "fullUrl": "urn:uuid:28a543a7-686f-4014-2aaa-c1f17047ee73",
      "resource": {
        "resourceType": "DiagnosticReport",
        "id": "28a543a7-686f-4014-2aaa-c1f17047ee73",
        "identifier": [
          {
            "system": "urn:ietf:rfc:3986",
            "value": "urn:uuid:fb666aa2-cb20-4b00-b1f9-ec5372cc88bf"
          }
        ],
        "status": "final",
        "code": {
          "coding": [
            {
              "code": "4544-3",
              "system": "http://loinc.org"
            }
          ]
        },
        "subject": {
          "reference": "Patient/2dde8c35-e57c-4f3e-a77c-39e144e9deda"
        },
        "result": [
          {
            "reference": "Observation/598db24d-ec9b-b527-a97f-bfe1f5383767"
          }
        ],
        "meta": {
          "source": [
            "ecr"
          ]
        }
      },
      "request": {
        "method": "PUT",
        "url": "DiagnosticReport/28a543a7-686f-4014-2aaa-c1f17047ee73"
      }
    },
    {
      "fullUrl": "urn:uuid:598db24d-ec9b-b527-a97f-bfe1f5383767",
      "resource": {
        "resourceType": "Observation",
        "id": "598db24d-ec9b-b527-a97f-bfe1f5383767",
        "meta": {
          "profile": [
            "http://hl7.org/fhir/us/core/StructureDefinition/us-core-observationresults"
          ],
          "source": [
            "ecr"
          ]
        },
        "identifier": [
          {
            "system": "urn:oid:2.16.840.1.113883",
            "value": "https://fhir-ehr.cerner.com/r4/da0b5d99-573c-4f5e-aaf6-8d39fa93d033/Observation/M-19362290892/_history/1"
          }
        ],
        "category": [
          {
            "coding": [
              {
                "system": "http://terminology.hl7.org/CodeSystem/observation-category",
                "code": "laboratory"
              }
            ]
          }
        ],
        "status": "final",
        "code": {
          "coding": [
            {
              "code": "4544-3",
              "system": "http://loinc.org"
            }
          ]
        },
        "effectiveDateTime": "2022-04-28T01:22:00Z",
        "valueQuantity": {
          "value": 37.6,
          "unit": "%"
        },
        "interpretation": [
          {
            "coding": [
              {
                "code": "N",
                "display": "Normal",
                "system": "http://terminology.hl7.org/CodeSystem/v3-ObservationInterpretation"
              }
            ]
          }
        ],
        "subject": {
          "reference": "Patient/2dde8c35-e57c-4f3e-a77c-39e144e9deda"
        }
      },
      "request": {
        "method": "PUT",
        "url": "Observation/598db24d-ec9b-b527-a97f-bfe1f5383767"
      }
    },
    {
      "fullUrl": "urn:uuid:98ce677c-3f2f-c120-5824-e268b87de245",
      "resource": {
        "resourceType": "DiagnosticReport",
        "id": "98ce677c-3f2f-c120-5824-e268b87de245",
        "identifier": [
          {
            "system": "urn:ietf:rfc:3986",
            "value": "urn:uuid:6bc0de90-b31a-4d37-86b2-f539551c9d12"
          }
        ],
        "status": "final",
        "code": {
          "coding": [
            {
              "code": "2345-7",
              "system": "http://loinc.org"
            }
          ]
        },
        "subject": {
          "reference": "Patient/2dde8c35-e57c-4f3e-a77c-39e144e9deda"
        },
        "result": [
          {
            "reference": "Observation/fc20ae8b-96e5-43a7-aca0-1dedf7c40280"
          }
        ],
        "meta": {
          "source": [
            "ecr"
          ]
        }
      },
      "request": {
        "method": "PUT",
        "url": "DiagnosticReport/98ce677c-3f2f-c120-5824-e268b87de245"
      }
    },
    {
      "fullUrl": "urn:uuid:fc20ae8b-96e5-43a7-aca0-1dedf7c40280",
      "resource": {
        "resourceType": "Observation",
        "id": "fc20ae8b-96e5-43a7-aca0-1dedf7c40280",
        "meta": {
          "profile": [
            "http://hl7.org/fhir/us/core/StructureDefinition/us-core-observationresults"
          ],
          "source": [
            "ecr"
          ]
        },
        "identifier": [
          {
            "system": "urn:oid:2.16.840.1.113883",
            "value": "https://fhir-ehr.cerner.com/r4/da0b5d99-573c-4f5e-aaf6-8d39fa93d033/Observation/M-19362457406/_history/1"
          }
        ],
        "category": [
          {
            "coding": [
              {
                "system": "http://terminology.hl7.org/CodeSystem/observation-category",
                "code": "laboratory"
              }
            ]
          }
        ],
        "status": "final",
        "code": {
          "coding": [
            {
              "code": "2345-7",
              "system": "http://loinc.org"
            }
          ]
        },
        "effectiveDateTime": "2022-04-28T01:22:00Z",
        "valueQuantity": {
          "value": 97,
          "unit": "mg/dL"
        },
        "interpretation": [
          {
            "coding": [
              {
                "code": "N",
                "display": "Normal",
                "system": "http://terminology.hl7.org/CodeSystem/v3-ObservationInterpretation"
              }
            ]
          }
        ],
        "subject": {
          "reference": "Patient/2dde8c35-e57c-4f3e-a77c-39e144e9deda"
        }
      },
      "request": {
        "method": "PUT",
        "url": "Observation/fc20ae8b-96e5-43a7-aca0-1dedf7c40280"
      }
    },
    {
      "fullUrl": "urn:uuid:675b76da-ca1c-ee87-bdb1-fca80400134f",
      "resource": {
        "resourceType": "DiagnosticReport",
        "id": "675b76da-ca1c-ee87-bdb1-fca80400134f",
        "identifier": [
          {
            "system": "urn:ietf:rfc:3986",
            "value": "urn:uuid:8ea9386d-18a9-4baa-bc89-e1bec32eabe6"
          }
        ],
        "status": "final",
        "code": {
          "coding": [
            {
              "code": "2028-9",
              "system": "http://loinc.org"
            }
          ]
        },
        "subject": {
          "reference": "Patient/2dde8c35-e57c-4f3e-a77c-39e144e9deda"
        },
        "result": [
          {
            "reference": "Observation/be81faff-4836-3be8-1a6b-6b04f6619346"
          }
        ],
        "meta": {
          "source": [
            "ecr"
          ]
        }
      },
      "request": {
        "method": "PUT",
        "url": "DiagnosticReport/675b76da-ca1c-ee87-bdb1-fca80400134f"
      }
    },
    {
      "fullUrl": "urn:uuid:be81faff-4836-3be8-1a6b-6b04f6619346",
      "resource": {
        "resourceType": "Observation",
        "id": "be81faff-4836-3be8-1a6b-6b04f6619346",
        "meta": {
          "profile": [
            "http://hl7.org/fhir/us/core/StructureDefinition/us-core-observationresults"
          ],
          "source": [
            "ecr"
          ]
        },
        "identifier": [
          {
            "system": "urn:oid:2.16.840.1.113883",
            "value": "https://fhir-ehr.cerner.com/r4/da0b5d99-573c-4f5e-aaf6-8d39fa93d033/Observation/M-19362457402/_history/1"
          }
        ],
        "category": [
          {
            "coding": [
              {
                "system": "http://terminology.hl7.org/CodeSystem/observation-category",
                "code": "laboratory"
              }
            ]
          }
        ],
        "status": "final",
        "code": {
          "coding": [
            {
              "code": "2028-9",
              "system": "http://loinc.org"
            }
          ]
        },
        "effectiveDateTime": "2022-04-28T01:22:00Z",
        "valueQuantity": {
          "value": 24.8,
          "unit": "mmol/L"
        },
        "interpretation": [
          {
            "coding": [
              {
                "code": "N",
                "display": "Normal",
                "system": "http://terminology.hl7.org/CodeSystem/v3-ObservationInterpretation"
              }
            ]
          }
        ],
        "subject": {
          "reference": "Patient/2dde8c35-e57c-4f3e-a77c-39e144e9deda"
        }
      },
      "request": {
        "method": "PUT",
        "url": "Observation/be81faff-4836-3be8-1a6b-6b04f6619346"
      }
    },
    {
      "fullUrl": "urn:uuid:949be4b5-72f9-0dfa-8428-082d2b15fd88",
      "resource": {
        "resourceType": "DiagnosticReport",
        "id": "949be4b5-72f9-0dfa-8428-082d2b15fd88",
        "identifier": [
          {
            "system": "urn:ietf:rfc:3986",
            "value": "urn:uuid:be37f4d8-1803-4347-a800-0d04bdb380f0"
          }
        ],
        "status": "final",
        "code": {
          "coding": [
            {
              "code": "1975-2",
              "system": "http://loinc.org"
            }
          ]
        },
        "subject": {
          "reference": "Patient/2dde8c35-e57c-4f3e-a77c-39e144e9deda"
        },
        "result": [
          {
            "reference": "Observation/667bb0e8-8fc6-4c88-5f31-580eef4cb6fb"
          }
        ],
        "meta": {
          "source": [
            "ecr"
          ]
        }
      },
      "request": {
        "method": "PUT",
        "url": "DiagnosticReport/949be4b5-72f9-0dfa-8428-082d2b15fd88"
      }
    },
    {
      "fullUrl": "urn:uuid:667bb0e8-8fc6-4c88-5f31-580eef4cb6fb",
      "resource": {
        "resourceType": "Observation",
        "id": "667bb0e8-8fc6-4c88-5f31-580eef4cb6fb",
        "meta": {
          "profile": [
            "http://hl7.org/fhir/us/core/StructureDefinition/us-core-observationresults"
          ],
          "source": [
            "ecr"
          ]
        },
        "identifier": [
          {
            "system": "urn:oid:2.16.840.1.113883",
            "value": "https://fhir-ehr.cerner.com/r4/da0b5d99-573c-4f5e-aaf6-8d39fa93d033/Observation/M-19362457422/_history/1"
          }
        ],
        "category": [
          {
            "coding": [
              {
                "system": "http://terminology.hl7.org/CodeSystem/observation-category",
                "code": "laboratory"
              }
            ]
          }
        ],
        "status": "final",
        "code": {
          "coding": [
            {
              "code": "1975-2",
              "system": "http://loinc.org"
            }
          ]
        },
        "effectiveDateTime": "2022-04-28T01:22:00Z",
        "valueString": "TNP see comment mg/dL",
        "subject": {
          "reference": "Patient/2dde8c35-e57c-4f3e-a77c-39e144e9deda"
        }
      },
      "request": {
        "method": "PUT",
        "url": "Observation/667bb0e8-8fc6-4c88-5f31-580eef4cb6fb"
      }
    },
    {
      "fullUrl": "urn:uuid:144afd9f-36bd-96b0-dcd5-35671f965cc4",
      "resource": {
        "resourceType": "DiagnosticReport",
        "id": "144afd9f-36bd-96b0-dcd5-35671f965cc4",
        "identifier": [
          {
            "system": "urn:ietf:rfc:3986",
            "value": "urn:uuid:82994fee-7693-42ea-b0ec-b7c54dfb9c78"
          }
        ],
        "status": "final",
        "code": {
          "coding": [
            {
              "code": "1920-8",
              "system": "http://loinc.org"
            }
          ]
        },
        "subject": {
          "reference": "Patient/2dde8c35-e57c-4f3e-a77c-39e144e9deda"
        },
        "result": [
          {
            "reference": "Observation/3fcbcbae-f7f4-d71d-f565-8a3f8dff4b91"
          }
        ],
        "meta": {
          "source": [
            "ecr"
          ]
        }
      },
      "request": {
        "method": "PUT",
        "url": "DiagnosticReport/144afd9f-36bd-96b0-dcd5-35671f965cc4"
      }
    },
    {
      "fullUrl": "urn:uuid:3fcbcbae-f7f4-d71d-f565-8a3f8dff4b91",
      "resource": {
        "resourceType": "Observation",
        "id": "3fcbcbae-f7f4-d71d-f565-8a3f8dff4b91",
        "meta": {
          "profile": [
            "http://hl7.org/fhir/us/core/StructureDefinition/us-core-observationresults"
          ],
          "source": [
            "ecr"
          ]
        },
        "identifier": [
          {
            "system": "urn:oid:2.16.840.1.113883",
            "value": "https://fhir-ehr.cerner.com/r4/da0b5d99-573c-4f5e-aaf6-8d39fa93d033/Observation/M-19362457416/_history/1"
          }
        ],
        "category": [
          {
            "coding": [
              {
                "system": "http://terminology.hl7.org/CodeSystem/observation-category",
                "code": "laboratory"
              }
            ]
          }
        ],
        "status": "final",
        "code": {
          "coding": [
            {
              "code": "1920-8",
              "system": "http://loinc.org"
            }
          ]
        },
        "effectiveDateTime": "2022-04-28T01:22:00Z",
        "valueQuantity": {
          "value": 22,
          "unit": "Intl_units/L"
        },
        "interpretation": [
          {
            "coding": [
              {
                "code": "N",
                "display": "Normal",
                "system": "http://terminology.hl7.org/CodeSystem/v3-ObservationInterpretation"
              }
            ]
          }
        ],
        "subject": {
          "reference": "Patient/2dde8c35-e57c-4f3e-a77c-39e144e9deda"
        }
      },
      "request": {
        "method": "PUT",
        "url": "Observation/3fcbcbae-f7f4-d71d-f565-8a3f8dff4b91"
      }
    },
    {
      "fullUrl": "urn:uuid:f5fc53f2-37f3-a72d-85b9-3c770443e6c3",
      "resource": {
        "resourceType": "DiagnosticReport",
        "id": "f5fc53f2-37f3-a72d-85b9-3c770443e6c3",
        "identifier": [
          {
            "system": "urn:ietf:rfc:3986",
            "value": "urn:uuid:6831a02c-e2bb-4dfb-8c9c-a07abe9f3e02"
          }
        ],
        "status": "final",
        "code": {
          "coding": [
            {
              "code": "1742-6",
              "system": "http://loinc.org"
            }
          ]
        },
        "subject": {
          "reference": "Patient/2dde8c35-e57c-4f3e-a77c-39e144e9deda"
        },
        "result": [
          {
            "reference": "Observation/4974a1cf-e432-bc5c-2b18-bf8063a67ee3"
          }
        ],
        "meta": {
          "source": [
            "ecr"
          ]
        }
      },
      "request": {
        "method": "PUT",
        "url": "DiagnosticReport/f5fc53f2-37f3-a72d-85b9-3c770443e6c3"
      }
    },
    {
      "fullUrl": "urn:uuid:4974a1cf-e432-bc5c-2b18-bf8063a67ee3",
      "resource": {
        "resourceType": "Observation",
        "id": "4974a1cf-e432-bc5c-2b18-bf8063a67ee3",
        "meta": {
          "profile": [
            "http://hl7.org/fhir/us/core/StructureDefinition/us-core-observationresults"
          ],
          "source": [
            "ecr"
          ]
        },
        "identifier": [
          {
            "system": "urn:oid:2.16.840.1.113883",
            "value": "https://fhir-ehr.cerner.com/r4/da0b5d99-573c-4f5e-aaf6-8d39fa93d033/Observation/M-19362457414/_history/1"
          }
        ],
        "category": [
          {
            "coding": [
              {
                "system": "http://terminology.hl7.org/CodeSystem/observation-category",
                "code": "laboratory"
              }
            ]
          }
        ],
        "status": "final",
        "code": {
          "coding": [
            {
              "code": "1742-6",
              "system": "http://loinc.org"
            }
          ]
        },
        "effectiveDateTime": "2022-04-28T01:22:00Z",
        "valueQuantity": {
          "value": 27,
          "unit": "Intl_units/L"
        },
        "interpretation": [
          {
            "coding": [
              {
                "code": "N",
                "display": "Normal",
                "system": "http://terminology.hl7.org/CodeSystem/v3-ObservationInterpretation"
              }
            ]
          }
        ],
        "subject": {
          "reference": "Patient/2dde8c35-e57c-4f3e-a77c-39e144e9deda"
        }
      },
      "request": {
        "method": "PUT",
        "url": "Observation/4974a1cf-e432-bc5c-2b18-bf8063a67ee3"
      }
    },
    {
      "fullUrl": "urn:uuid:db627130-f5a6-ff8c-f507-69a9c6110c3d",
      "resource": {
        "resourceType": "DiagnosticReport",
        "id": "db627130-f5a6-ff8c-f507-69a9c6110c3d",
        "identifier": [
          {
            "system": "urn:ietf:rfc:3986",
            "value": "urn:uuid:5cecb841-d9cb-4b90-a00c-73402aef768c"
          }
        ],
        "status": "final",
        "code": {
          "coding": [
            {
              "code": "6768-6",
              "system": "http://loinc.org"
            }
          ]
        },
        "subject": {
          "reference": "Patient/2dde8c35-e57c-4f3e-a77c-39e144e9deda"
        },
        "result": [
          {
            "reference": "Observation/2e6a985d-ac92-9ec9-d5f0-5a1206b361ae"
          }
        ],
        "meta": {
          "source": [
            "ecr"
          ]
        }
      },
      "request": {
        "method": "PUT",
        "url": "DiagnosticReport/db627130-f5a6-ff8c-f507-69a9c6110c3d"
      }
    },
    {
      "fullUrl": "urn:uuid:2e6a985d-ac92-9ec9-d5f0-5a1206b361ae",
      "resource": {
        "resourceType": "Observation",
        "id": "2e6a985d-ac92-9ec9-d5f0-5a1206b361ae",
        "meta": {
          "profile": [
            "http://hl7.org/fhir/us/core/StructureDefinition/us-core-observationresults"
          ],
          "source": [
            "ecr"
          ]
        },
        "identifier": [
          {
            "system": "urn:oid:2.16.840.1.113883",
            "value": "https://fhir-ehr.cerner.com/r4/da0b5d99-573c-4f5e-aaf6-8d39fa93d033/Observation/M-19362457420/_history/1"
          }
        ],
        "category": [
          {
            "coding": [
              {
                "system": "http://terminology.hl7.org/CodeSystem/observation-category",
                "code": "laboratory"
              }
            ]
          }
        ],
        "status": "final",
        "code": {
          "coding": [
            {
              "code": "6768-6",
              "system": "http://loinc.org"
            }
          ]
        },
        "effectiveDateTime": "2022-04-28T01:22:00Z",
        "valueQuantity": {
          "value": 72,
          "unit": "Intl_units/L"
        },
        "interpretation": [
          {
            "coding": [
              {
                "code": "N",
                "display": "Normal",
                "system": "http://terminology.hl7.org/CodeSystem/v3-ObservationInterpretation"
              }
            ]
          }
        ],
        "subject": {
          "reference": "Patient/2dde8c35-e57c-4f3e-a77c-39e144e9deda"
        }
      },
      "request": {
        "method": "PUT",
        "url": "Observation/2e6a985d-ac92-9ec9-d5f0-5a1206b361ae"
      }
    },
    {
      "fullUrl": "urn:uuid:a0c3f024-5583-6441-fb2f-52fe423019ae",
      "resource": {
        "resourceType": "DiagnosticReport",
        "id": "a0c3f024-5583-6441-fb2f-52fe423019ae",
        "identifier": [
          {
            "system": "urn:ietf:rfc:3986",
            "value": "urn:uuid:a19cdff9-eeb0-41af-9d0b-b513e087885b"
          }
        ],
        "status": "final",
        "code": {
          "coding": [
            {
              "code": "3097-3",
              "system": "http://loinc.org"
            }
          ]
        },
        "subject": {
          "reference": "Patient/2dde8c35-e57c-4f3e-a77c-39e144e9deda"
        },
        "result": [
          {
            "reference": "Observation/b2b9c235-fffa-693b-ad6a-2ed97ca08fa3"
          }
        ],
        "meta": {
          "source": [
            "ecr"
          ]
        }
      },
      "request": {
        "method": "PUT",
        "url": "DiagnosticReport/a0c3f024-5583-6441-fb2f-52fe423019ae"
      }
    },
    {
      "fullUrl": "urn:uuid:b2b9c235-fffa-693b-ad6a-2ed97ca08fa3",
      "resource": {
        "resourceType": "Observation",
        "id": "b2b9c235-fffa-693b-ad6a-2ed97ca08fa3",
        "meta": {
          "profile": [
            "http://hl7.org/fhir/us/core/StructureDefinition/us-core-observationresults"
          ],
          "source": [
            "ecr"
          ]
        },
        "identifier": [
          {
            "system": "urn:oid:2.16.840.1.113883",
            "value": "https://fhir-ehr.cerner.com/r4/da0b5d99-573c-4f5e-aaf6-8d39fa93d033/Observation/M-19362457410/_history/1"
          }
        ],
        "category": [
          {
            "coding": [
              {
                "system": "http://terminology.hl7.org/CodeSystem/observation-category",
                "code": "laboratory"
              }
            ]
          }
        ],
        "status": "final",
        "code": {
          "coding": [
            {
              "code": "3097-3",
              "system": "http://loinc.org"
            }
          ]
        },
        "effectiveDateTime": "2022-04-28T01:22:00Z",
        "valueQuantity": {
          "value": 20.0,
          "unit": "Ratio"
        },
        "subject": {
          "reference": "Patient/2dde8c35-e57c-4f3e-a77c-39e144e9deda"
        }
      },
      "request": {
        "method": "PUT",
        "url": "Observation/b2b9c235-fffa-693b-ad6a-2ed97ca08fa3"
      }
    },
    {
      "fullUrl": "urn:uuid:7cbd4df4-87ad-8c53-1391-ed39f2436d78",
      "resource": {
        "resourceType": "DiagnosticReport",
        "id": "7cbd4df4-87ad-8c53-1391-ed39f2436d78",
        "identifier": [
          {
            "system": "urn:ietf:rfc:3986",
            "value": "urn:uuid:2b3cd4b9-5faa-43e5-aecf-b538e69ad1d3"
          }
        ],
        "status": "final",
        "code": {
          "coding": [
            {
              "code": "6301-6",
              "system": "http://loinc.org"
            }
          ]
        },
        "subject": {
          "reference": "Patient/2dde8c35-e57c-4f3e-a77c-39e144e9deda"
        },
        "result": [
          {
            "reference": "Observation/98c6194c-3691-a2d4-745a-f3d8b5a19c86"
          }
        ],
        "meta": {
          "source": [
            "ecr"
          ]
        }
      },
      "request": {
        "method": "PUT",
        "url": "DiagnosticReport/7cbd4df4-87ad-8c53-1391-ed39f2436d78"
      }
    },
    {
      "fullUrl": "urn:uuid:98c6194c-3691-a2d4-745a-f3d8b5a19c86",
      "resource": {
        "resourceType": "Observation",
        "id": "98c6194c-3691-a2d4-745a-f3d8b5a19c86",
        "meta": {
          "profile": [
            "http://hl7.org/fhir/us/core/StructureDefinition/us-core-observationresults"
          ],
          "source": [
            "ecr"
          ]
        },
        "identifier": [
          {
            "system": "urn:oid:2.16.840.1.113883",
            "value": "https://fhir-ehr.cerner.com/r4/da0b5d99-573c-4f5e-aaf6-8d39fa93d033/Observation/M-19362384023/_history/1"
          }
        ],
        "category": [
          {
            "coding": [
              {
                "system": "http://terminology.hl7.org/CodeSystem/observation-category",
                "code": "laboratory"
              }
            ]
          }
        ],
        "status": "final",
        "code": {
          "coding": [
            {
              "code": "6301-6",
              "system": "http://loinc.org"
            }
          ]
        },
        "effectiveDateTime": "2022-04-28T01:22:00Z",
        "valueQuantity": {
          "value": 1.06,
          "unit": "null"
        },
        "interpretation": [
          {
            "coding": [
              {
                "code": "N",
                "display": "Normal",
                "system": "http://terminology.hl7.org/CodeSystem/v3-ObservationInterpretation"
              }
            ]
          }
        ],
        "subject": {
          "reference": "Patient/2dde8c35-e57c-4f3e-a77c-39e144e9deda"
        }
      },
      "request": {
        "method": "PUT",
        "url": "Observation/98c6194c-3691-a2d4-745a-f3d8b5a19c86"
      }
    },
    {
      "fullUrl": "urn:uuid:c35077e7-0e54-bdc0-b97e-f94093305f06",
      "resource": {
        "resourceType": "DiagnosticReport",
        "id": "c35077e7-0e54-bdc0-b97e-f94093305f06",
        "identifier": [
          {
            "system": "urn:ietf:rfc:3986",
            "value": "urn:uuid:a0725e67-147a-4790-b395-a48cff605697"
          }
        ],
        "status": "final",
        "code": {
          "coding": [
            {
              "code": "1863-0",
              "system": "http://loinc.org"
            }
          ]
        },
        "subject": {
          "reference": "Patient/2dde8c35-e57c-4f3e-a77c-39e144e9deda"
        },
        "result": [
          {
            "reference": "Observation/a16f6f50-16a7-1d5f-a2c2-eba9e91012ce"
          }
        ],
        "meta": {
          "source": [
            "ecr"
          ]
        }
      },
      "request": {
        "method": "PUT",
        "url": "DiagnosticReport/c35077e7-0e54-bdc0-b97e-f94093305f06"
      }
    },
    {
      "fullUrl": "urn:uuid:a16f6f50-16a7-1d5f-a2c2-eba9e91012ce",
      "resource": {
        "resourceType": "Observation",
        "id": "a16f6f50-16a7-1d5f-a2c2-eba9e91012ce",
        "meta": {
          "profile": [
            "http://hl7.org/fhir/us/core/StructureDefinition/us-core-observationresults"
          ],
          "source": [
            "ecr"
          ]
        },
        "identifier": [
          {
            "system": "urn:oid:2.16.840.1.113883",
            "value": "https://fhir-ehr.cerner.com/r4/da0b5d99-573c-4f5e-aaf6-8d39fa93d033/Observation/M-19362457404/_history/1"
          }
        ],
        "category": [
          {
            "coding": [
              {
                "system": "http://terminology.hl7.org/CodeSystem/observation-category",
                "code": "laboratory"
              }
            ]
          }
        ],
        "status": "final",
        "code": {
          "coding": [
            {
              "code": "1863-0",
              "system": "http://loinc.org"
            }
          ]
        },
        "effectiveDateTime": "2022-04-28T01:22:00Z",
        "valueQuantity": {
          "value": 14,
          "unit": "null"
        },
        "subject": {
          "reference": "Patient/2dde8c35-e57c-4f3e-a77c-39e144e9deda"
        }
      },
      "request": {
        "method": "PUT",
        "url": "Observation/a16f6f50-16a7-1d5f-a2c2-eba9e91012ce"
      }
    },
    {
      "fullUrl": "urn:uuid:dfa98ead-b013-185a-e641-0f7d9e3297f7",
      "resource": {
        "resourceType": "DiagnosticReport",
        "id": "dfa98ead-b013-185a-e641-0f7d9e3297f7",
        "identifier": [
          {
            "system": "urn:ietf:rfc:3986",
            "value": "urn:uuid:0e228af4-e824-47d1-844b-e5cac462a8be"
          }
        ],
        "status": "final",
        "code": {
          "coding": [
            {
              "code": "2118-8",
              "system": "http://loinc.org"
            }
          ]
        },
        "subject": {
          "reference": "Patient/2dde8c35-e57c-4f3e-a77c-39e144e9deda"
        },
        "result": [
          {
            "reference": "Observation/01920e8c-c852-a939-48e4-5a53be099566"
          }
        ],
        "meta": {
          "source": [
            "ecr"
          ]
        }
      },
      "request": {
        "method": "PUT",
        "url": "DiagnosticReport/dfa98ead-b013-185a-e641-0f7d9e3297f7"
      }
    },
    {
      "fullUrl": "urn:uuid:01920e8c-c852-a939-48e4-5a53be099566",
      "resource": {
        "resourceType": "Observation",
        "id": "01920e8c-c852-a939-48e4-5a53be099566",
        "meta": {
          "profile": [
            "http://hl7.org/fhir/us/core/StructureDefinition/us-core-observationresults"
          ],
          "source": [
            "ecr"
          ]
        },
        "identifier": [
          {
            "system": "urn:oid:2.16.840.1.113883",
            "value": "https://fhir-ehr.cerner.com/r4/da0b5d99-573c-4f5e-aaf6-8d39fa93d033/Observation/M-19362365175/_history/1"
          }
        ],
        "category": [
          {
            "coding": [
              {
                "system": "http://terminology.hl7.org/CodeSystem/observation-category",
                "code": "laboratory"
              }
            ]
          }
        ],
        "status": "final",
        "code": {
          "coding": [
            {
              "code": "2118-8",
              "system": "http://loinc.org"
            }
          ]
        },
        "effectiveDateTime": "2022-04-28T01:22:00Z",
        "valueCodeableConcept": {
          "coding": [
            {
              "code": "260385009",
              "display": "Negative (qualifier value)",
              "system": "http://snomed.info/sct"
            }
          ]
        },
        "interpretation": [
          {
            "coding": [
              {
                "code": "N",
                "display": "Normal",
                "system": "http://terminology.hl7.org/CodeSystem/v3-ObservationInterpretation"
              }
            ]
          }
        ],
        "subject": {
          "reference": "Patient/2dde8c35-e57c-4f3e-a77c-39e144e9deda"
        }
      },
      "request": {
        "method": "PUT",
        "url": "Observation/01920e8c-c852-a939-48e4-5a53be099566"
      }
    },
    {
      "fullUrl": "urn:uuid:3e8b5ab2-7a2d-9f09-6961-ed6e09c1abc2",
      "resource": {
        "resourceType": "DiagnosticReport",
        "id": "3e8b5ab2-7a2d-9f09-6961-ed6e09c1abc2",
        "identifier": [
          {
            "system": "urn:ietf:rfc:3986",
            "value": "urn:uuid:bc5fe970-1a84-4a7f-bcf0-e82913aa4c6d"
          }
        ],
        "status": "final",
        "code": {
          "coding": [
            {
              "code": "2160-0",
              "system": "http://loinc.org"
            }
          ]
        },
        "subject": {
          "reference": "Patient/2dde8c35-e57c-4f3e-a77c-39e144e9deda"
        },
        "result": [
          {
            "reference": "Observation/14b1db3c-983b-13b3-c56a-cbf7f926ec35"
          }
        ],
        "meta": {
          "source": [
            "ecr"
          ]
        }
      },
      "request": {
        "method": "PUT",
        "url": "DiagnosticReport/3e8b5ab2-7a2d-9f09-6961-ed6e09c1abc2"
      }
    },
    {
      "fullUrl": "urn:uuid:14b1db3c-983b-13b3-c56a-cbf7f926ec35",
      "resource": {
        "resourceType": "Observation",
        "id": "14b1db3c-983b-13b3-c56a-cbf7f926ec35",
        "meta": {
          "profile": [
            "http://hl7.org/fhir/us/core/StructureDefinition/us-core-observationresults"
          ],
          "source": [
            "ecr"
          ]
        },
        "identifier": [
          {
            "system": "urn:oid:2.16.840.1.113883",
            "value": "https://fhir-ehr.cerner.com/r4/da0b5d99-573c-4f5e-aaf6-8d39fa93d033/Observation/M-19362457392/_history/1"
          }
        ],
        "category": [
          {
            "coding": [
              {
                "system": "http://terminology.hl7.org/CodeSystem/observation-category",
                "code": "laboratory"
              }
            ]
          }
        ],
        "status": "final",
        "code": {
          "coding": [
            {
              "code": "2160-0",
              "system": "http://loinc.org"
            }
          ]
        },
        "effectiveDateTime": "2022-04-28T01:22:00Z",
        "valueQuantity": {
          "value": 1.0,
          "unit": "mg/dL"
        },
        "interpretation": [
          {
            "coding": [
              {
                "code": "N",
                "display": "Normal",
                "system": "http://terminology.hl7.org/CodeSystem/v3-ObservationInterpretation"
              }
            ]
          }
        ],
        "subject": {
          "reference": "Patient/2dde8c35-e57c-4f3e-a77c-39e144e9deda"
        }
      },
      "request": {
        "method": "PUT",
        "url": "Observation/14b1db3c-983b-13b3-c56a-cbf7f926ec35"
      }
    }
  ]
}
