{
  "resourceType": "Bundle",
  "type": "transaction",
  "entry": [
    {
      "fullUrl": "urn:uuid:1",
      "resource": {
        "resourceType": "Patient",
        "id": "1",
        "identifier": [
          {
            "use": "usual",
            "system": "http://terminology.hl7.org/CodeSystem/v2-0203",
            "value": "MRN123456",
            "type": {
              "coding": [
                {
                  "system": "http://terminology.hl7.org/CodeSystem/v2-0203",
                  "code": "MR",
                  "display": "Medical Record Number"
                }
              ]
            }
          },
          {
            "use": "official",
            "system": "http://terminology.hl7.org/CodeSystem/v2-0203",
            "value": "SSN987-65-4320",
            "type": {
              "coding": [
                {
                  "system": "http://terminology.hl7.org/CodeSystem/v2-0203",
                  "code": "SS",
                  "display": "Social Security Number"
                }
              ]
            }
          }
        ],
        "name": [
          {
            "use": "official",
            "text": "Ms. Saga Anderson",
            "family": "Anderson",
            "given": [
              "Saga"
            ],
            "prefix": [
              "Ms."
            ]
          }
        ],
        "telecom": [
          {
            "system": "phone",
            "value": "206-555-0123",
            "use": "home"
          }
        ],
        "gender": "female",
        "birthDate": "1987-11-11",
        "address": [
          {
            "use": "home",
            "type": "both",
            "text": "6 Watery Lighthouse Trailer Park Way, Unit #2, Watery, WA, 98440",
            "line": [
              "6 Watery Lighthouse Trailer Park Way",
              "Unit #2"
            ],
            "city": "Watery",
            "state": "WA",
            "postalCode": "98440",
            "country": "United States"
          }
        ],
        "maritalStatus": {
          "coding": [
            {
              "system": "http://terminology.hl7.org/CodeSystem/v3-MaritalStatus",
              "code": "M",
              "display": "Married"
            }
          ]
        },
        "extension": [
          {
            "url": "http://hl7.org/fhir/us/core/StructureDefinition/us-core-race",
            "extension": [
              {
                "url": "ombCategory",
                "valueCoding": {
                  "system": "urn:oid:2.16.840.1.113883.6.238",
                  "code": "2054-5",
                  "display": "Black or African American"
                }
              }
            ]
          },
          {
            "url": "http://hl7.org/fhir/us/core/StructureDefinition/us-core-ethnicity",
            "extension": [
              {
                "url": "ombCategory",
                "valueCoding": {
                  "system": "urn:oid:2.16.840.1.113883.6.238",
                  "code": "2186-5",
                  "display": "Not Hispanic or Latino"
                }
              }
            ]
          }
        ],
        "contact": [
          {
            "relationship": [
              {
                "coding": [
                  {
                    "system": "http://terminology.hl7.org/CodeSystem/v2-0131",
                    "code": "C",
                    "display": "Emergency Contact"
                  }
                ]
              }
            ],
            "name": {
              "family": "Woods",
              "given": [
                "David"
              ]
            }
          },
          {
            "relationship": [
              {
                "coding": [
                  {
                    "system": "http://terminology.hl7.org/CodeSystem/v2-0131",
                    "code": "N",
                    "display": "Next-of-Kin"
                  }
                ]
              }
            ],
            "name": {
              "family": "Anderson",
              "given": [
                "Logan"
              ]
            },
            "gender": "female"
          }
        ],
        "communication": [
          {
            "language": {
              "coding": [
                {
                  "system": "urn:ietf:bcp:47",
                  "code": "en-US",
                  "display": "English (United States)"
                }
              ]
            },
            "preferred": true
          }
        ]
      },
      "request": {
        "method": "POST",
        "url": "Patient"
      }
    },
    {
      "fullUrl": "urn:uuid:2",
      "resource": {
        "resourceType": "Encounter",
        "id": "2",
        "status": "finished",
        "class": {
          "system": "http://terminology.hl7.org/CodeSystem/v3-ActCode",
          "code": "AMB",
          "display": "Ambulatory"
        },
        "type": [
          {
            "coding": [
              {
                "system": "http://terminology.hl7.org/CodeSystem/encounter-type",
                "code": "AMB",
                "display": "Ambulatory"
              }
            ]
          }
        ],
        "subject": {
          "reference": "Patient/1"
        }
      },
      "request": {
        "method": "POST",
        "url": "Encounter"
      }
    },
    {
      "fullUrl": "urn:uuid:3",
      "resource": {
        "resourceType": "Observation",
        "id": "3",
        "status": "final",
        "code": {
          "coding": [
            {
              "system": "2.16.840.1.114222.4.5.232",
              "code": "INV163",
              "display": "Case Status"
            }
          ]
        },
        "subject": {
          "reference": "Patient/1"
        },
        "valueCodeableConcept": {
          "coding": [
            {
              "system": "2.16.840.1.113883.6.96",
              "code": "410605003",
              "display": "Confirmed"
            }
          ]
        }
      },
      "request": {
        "method": "POST",
        "url": "Observation"
      }
    },
    {
      "fullUrl": "urn:uuid:4",
      "resource": {
        "resourceType": "Observation",
        "id": "4",
        "status": "final",
        "code": {
          "coding": [
            {
              "system": "2.16.840.1.114222.4.5.232",
              "code": "INV169",
              "display": "Condition"
            }
          ]
        },
        "subject": {
          "reference": "Patient/1"
        },
        "valueCodeableConcept": {
          "coding": [
            {
              "system": "2.16.840.1.114222.4.5.277",
              "code": "10110",
              "display": "Hepatitis A, acute"
            }
          ]
        }
      },
      "request": {
        "method": "POST",
        "url": "Observation"
      }
    },
    {
      "fullUrl": "urn:uuid:5",
      "resource": {
        "resourceType": "Observation",
        "id": "5",
        "status": "final",
        "category": [
          {
            "coding": [
              {
                "system": "http://terminology.hl7.org/CodeSystem/observation-category",
                "code": "social-history",
                "display": "Social History"
              }
            ],
            "text": "Social History"
          }
        ],
        "code": {
          "coding": [
            {
              "system": "2.16.840.1.114222.4.5.232",
              "code": "DEM127",
              "display": "Is this person deceased?"
            }
          ]
        },
        "subject": {
          "reference": "Patient/1"
        },
        "valueCodeableConcept": {
          "coding": [
            {
              "system": "2.16.840.1.113883.12.136",
              "code": "N",
              "display": "No"
            }
          ]
        }
      }
    },
    {
      "fullUrl": "urn:uuid:6",
      "resource": {
        "resourceType": "Observation",
        "id": "6",
        "status": "final",
        "category": [
          {
            "coding": [
              {
                "system": "http://terminology.hl7.org/CodeSystem/observation-category",
                "code": "social-history",
                "display": "Social History"
              }
            ],
            "text": "Social History"
          }
        ],
        "code": {
          "coding": [
            {
              "system": "2.16.840.1.114222.4.5.1",
              "code": "NBS104",
              "display": "Information As of Date"
            }
          ]
        },
        "subject": {
          "reference": "Patient/1"
        },
        "valueCodeableConcept": {
          "coding": [
            {
              "display": "2024-01-24"
            }
          ]
        },
        "valueDateTime": "2024-01-24"
      }
    },
    {
      "fullUrl": "urn:uuid:7",
      "resource": {
        "resourceType": "Observation",
        "id": "7",
        "status": "final",
        "category": [
          {
            "coding": [
              {
                "system": "http://terminology.hl7.org/CodeSystem/observation-category",
                "code": "social-history",
                "display": "Social History"
              }
            ],
            "text": "Social History"
          }
        ],
        "code": {
          "coding": [
            {
              "code": "INV2001",
              "system": "2.16.840.1.114222.4.5.232",
              "display": "Reported Age"
            }
          ]
        },
        "subject": {
          "reference": "Patient/1"
        },
        "valueCodeableConcept": {
          "coding": [
            {
              "display": "36"
            }
          ]
        }
      }
    },
    {
      "fullUrl": "urn:uuid:8",
      "resource": {
        "resourceType": "Observation",
        "id": "8",
        "status": "final",
        "category": [
          {
            "coding": [
              {
                "system": "http://terminology.hl7.org/CodeSystem/observation-category",
                "code": "social-history",
                "display": "Social History"
              }
            ],
            "text": "Social History"
          }
        ],
        "code": {
          "coding": [
            {
              "system": "2.16.840.1.114222.4.5.232",
              "code": "INV2002",
              "display": "Reported Age Units"
            }
          ]
        },
        "subject": {
          "reference": "Patient/1"
        },
        "valueCodeableConcept": {
          "coding": [
            {
              "system": "2.16.840.1.113883.6.8",
              "code": "a",
              "display": "year [time]"
            }
          ]
        }
      }
    },
    {
      "fullUrl": "urn:uuid:9",
      "resource": {
        "resource": {
          "resourceType": "Observation",
          "id": "9",
          "status": "final",
          "code": {
            "coding": [
              {
                "code": "INV168",
                "system": "2.16.840.1.114222.4.5.232",
                "display": "Investigation ID"
              }
            ]
          },
          "subject": {
            "reference": "Patient/1"
          },
          "valueCodeableConcept": [
            {
              "display": "CAS1012400GA01"
            }
          ]
        }
      }
    },
    {
      "fullUrl": "urn:uuid:10",
      "resource": {
        "resourceType": "Observation",
        "id": "10",
        "status": "final",
        "code": {
          "coding": [
            {
              "code": "INV163",
              "system": "2.16.840.1.114222.4.5.232",
              "display": "Case Status"
            }
          ]
        },
        "subject": {
          "reference": "Patient/1"
        },
        "valueCodeableConcept": {
          "coding": [
            {
              "code": "410605003",
              "system": "2.16.840.1.113883.6.96",
              "display": "Confirmed"
            }
          ]
        }
      }
    },
    {
      "fullUrl": "urn:uuid:11",
      "resource": {
        "resourceType": "Observation",
        "id": "11",
        "status": "preliminary",
        "code": {
          "coding": [
            {
              "system": "2.16.840.1.114222.4.5.232",
              "code": "INV169",
              "display": "Condition"
            }
          ]
        },
        "subject": {
          "reference": "Patient/1"
        },
        "valueCodeableConcept": {
          "coding": [
            {
              "system": "2.16.840.1.114222.4.5.277",
              "code": "10110",
              "display": "Hepatitis A, acute"
            }
          ]
        },
        "effectiveDateTime": "2022-10-10"
      }
    },
    {
      "fullUrl": "urn:uuid:12",
      "resource": {
        "resourceType": "Observation",
        "id": "12",
        "status": "final",
        "code": {
          "coding": [
            {
              "system": "2.16.840.1.114222.4.5.1",
              "code": "NBS055",
              "display": "Contact Investigation Priority"
            }
          ]
        },
        "subject": {
          "reference": "Patient/1"
        },
        "valueCodeableConcept": {
          "coding": [
            {
              "system": "L",
              "code": "LOW",
              "display": "Low"
            }
          ]
        }
      }
    },
    {
      "fullUrl": "urn:uuid:13",
      "resource": {
        "resourceType": "Observation",
        "id": "13",
        "status": "final",
        "code": {
          "coding": [
            {
              "system": "2.16.840.1.114222.4.5.1",
              "code": "NBS058",
              "display": "Contact Investigation Status"
            }
          ]
        },
        "subject": {
          "reference": "Patient/1"
        },
        "valueCodeableConcept": {
          "coding": [
            {
              "system": "2.16.840.1.113883.6.96",
              "code": "385651009",
              "display": "In progress"
            }
          ]
        }
      }
    },
    {
      "fullUrl": "urn:uuid:14",
      "resource": {
        "resourceType": "Observation",
        "id": "14",
        "status": "final",
        "code": {
          "coding": [
            {
              "code": "INV148",
              "system": "2.16.840.1.114222.4.5.232",
              "display": "Is this person associated with a day care facility?"
            }
          ]
        },
        "subject": {
          "reference": "Patient/1"
        },
        "valueCodeableConcept": {
          "coding": [
            {
              "code": "Y",
              "system": "2.16.840.1.113883.12.136",
              "display": "Yes"
            }
          ]
        }
      }
    },
    {
      "fullUrl": "urn:uuid:20",
      "resource": {
        "resourceType": "Observation",
        "id": "20",
        "status": "final",
        "category": [
          {
            "coding": [
              {
                "system": "http://terminology.hl7.org/CodeSystem/observation-category",
                "code": "EXPOS",
                "display": "Exposure"
              }
            ]
          }
        ],
        "code": {
          "coding": [
            {
              "system": "http://loinc.org",
              "code": "69730-0",
              "display": "Questionnaire Document"
            }
          ],
          "text": "Exposure Related Questions"
        },
        "component": [
          {
            "code": {
              "coding": [
                {
                  "system": "2.16.840.1.113883.6.1",
                  "code": "INV502",
                  "display": "Country of Exposure"
                }
              ]
            },
            "valueCodeableConcept": {
              "coding": [
                {
                  "system": "1.0.3166.1",
                  "code": "USA",
                  "display": "UNITED STATES"
                }
              ]
            }
          },
          {
            "code": {
              "coding": [
                {
                  "system": "2.16.840.1.113883.6.1",
                  "code": "INV503",
                  "display": "State or Province of Exposure"
                }
              ]
            },
            "valueCodeableConcept": {
              "coding": [
                {
                  "system": "2.16.840.1.113883.6.92",
                  "code": "53",
                  "display": "Washington"
                }
              ]
            }
          },
          {
            "code": {
              "coding": [
                {
                  "system": "2.16.840.1.113883.6.1",
                  "code": "INV504",
                  "display": "City of Exposure"
                }
              ]
            },
            "valueCodeableConcept": {
              "coding": [
                {
                  "display": "Bright Falls"
                }
              ]
            }
          },
          {
            "code": {
              "coding": [
                {
                  "system": "2.16.840.1.113883.6.1",
                  "code": "INV505",
                  "display": "County of Exposure"
                }
              ]
            },
            "valueCodeableConcept": {
              "coding": [
                {
                  "system": "2.16.840.1.113883.6.93",
                  "code": "053",
                  "display": "Pierce County"
                }
              ]
            }
          }
        ],
        "subject": {
          "reference": "Patient/1"
        }
      }
    },
    {
      "fullUrl": "urn:uuid:15",
      "resource": {
        "resourceType": "Organization",
        "id": "15",
        "meta": {
          "profile": [
            "http://hl7.org/fhir/Organization"
          ]
        },
        "name": "Nelson Family Practice",
        "address": [
          {
            "line": [
              "123 Harbor St"
            ],
            "city": "Bright Falls",
            "state": "WA",
            "postalCode": "98440",
            "country": "United States"
          }
        ],
        "telecom": [
          {
            "system": "phone",
            "value": "206-555-0199",
            "use": "work"
          }
        ]
      },
      "request": {
        "method": "POST",
        "url": "Organization"
      }
    },
    {
      "fullUrl": "urn:uuid:16",
      "resource": {
        "resourceType": "Practitioner",
        "id": "16",
        "meta": {
          "profile": [
            "http://hl7.org/fhir/Practitioner"
          ]
        },
        "name": [
          {
            "family": "Nelson",
            "given": [
              "Emma"
            ],
            "prefix": [
              "Dr."
            ]
          }
        ]
      },
      "request": {
        "method": "POST",
        "url": "Practitioner"
      }
    },
    {
      "fullUrl": "urn:uuid:17",
      "resource": {
        "resourceType": "Composition",
        "id": "17",
        "meta": {
          "profile": [
            "http://hl7.org/fhir/Composition"
          ]
        },
        "status": "final",
        "type": {
          "coding": [
            {
              "system": "http://loinc.org",
              "code": "11506-3",
              "display": "Consultation note"
            }
          ]
        },
        "subject": {
          "reference": "Patient/1"
        },
        "date": "2024-02-07",
        "author": [
          {
            "reference": "Practitioner/16"
          }
        ],
        "title": "Hepatitis A Testing and Consultation",
        "custodian": {
          "reference": "Organization/15"
        },
        "section": [
          {
            "title": "Encounter",
            "entry": [
              {
                "reference": "urn:uuid:2"
              }
            ]
          },
          {
            "title": "Observations",
            "entry": [
              {
                "reference": "urn:uuid:3"
              },
              {
                "reference": "urn:uuid:4"
              },
              {
                "reference": "urn:uuid:5"
              },
              {
                "reference": "urn:uuid:6"
              },
              {
                "reference": "urn:uuid:7"
              },
              {
                "reference": "urn:uuid:8"
              },
              {
                "reference": "urn:uuid:9"
              },
              {
                "reference": "urn:uuid:10"
              },
              {
                "reference": "urn:uuid:11"
              },
              {
                "reference": "urn:uuid:12"
              },
              {
                "reference": "urn:uuid:13"
              },
              {
                "reference": "urn:uuid:14"
              },
              {
                "reference": "urn:uuid:20"
              }
            ]
          }
        ],
        "request": {
          "method": "POST",
          "url": "Composition"
        }
      }
    }
  ]
}
