{
  "resourceType": "Bundle",
  "type": "transaction",
  "entry": [
    {
      "fullUrl": "urn:uuid:1",
      "resource": {
        "resourceType": "Patient",
        "id": "1",
        "identifier": [
          {
            "use": "usual",
            "system": "http://terminology.hl7.org/CodeSystem/v2-0203",
            "value": "MRN123456",
            "type": {
              "coding": [
                {
                  "system": "http://terminology.hl7.org/CodeSystem/v2-0203",
                  "code": "MR",
                  "display": "Medical Record Number"
                }
              ]
            }
          },
          {
            "use": "official",
            "system": "http://terminology.hl7.org/CodeSystem/v2-0203",
            "value": "SSN987-65-4320",
            "type": {
              "coding": [
                {
                  "system": "http://terminology.hl7.org/CodeSystem/v2-0203",
                  "code": "SS",
                  "display": "Social Security Number"
                }
              ]
            }
          }
        ],
        "name": [
          {
            "use": "official",
            "text": "Ms. Saga Anderson",
            "family": "Anderson",
            "given": [
              "Saga"
            ],
            "prefix": [
              "Ms."
            ]
          }
        ],
        "telecom": [
          {
            "system": "phone",
            "value": "206-555-0123",
            "use": "home"
          }
        ],
        "gender": "female",
        "birthDate": "1987-11-11",
        "address": [
          {
            "use": "home",
            "type": "both",
            "text": "6 Watery Lighthouse Trailer Park Way, Unit #2, Watery, WA, 98440",
            "line": [
              "6 Watery Lighthouse Trailer Park Way",
              "Unit #2"
            ],
            "city": "Watery",
            "state": "WA",
            "postalCode": "98440",
            "country": "United States"
          }
        ],
        "maritalStatus": {
          "coding": [
            {
              "system": "http://terminology.hl7.org/CodeSystem/v3-MaritalStatus",
              "code": "M",
              "display": "Married"
            }
          ]
        },
        "contact": [
          {
            "relationship": [
              {
                "coding": [
                  {
                    "system": "http://terminology.hl7.org/CodeSystem/v2-0131",
                    "code": "C",
                    "display": "Emergency Contact"
                  }
                ]
              }
            ],
            "name": {
              "family": "Woods",
              "given": [
                "David"
              ]
            }
          },
          {
            "relationship": [
              {
                "coding": [
                  {
                    "system": "http://terminology.hl7.org/CodeSystem/v2-0131",
                    "code": "N",
                    "display": "Next-of-Kin"
                  }
                ]
              }
            ],
            "name": {
              "family": "Anderson",
              "given": [
                "Logan"
              ]
            },
            "gender": "female"
          }
        ],
        "communication": [
          {
            "language": {
              "coding": [
                {
                  "system": "urn:ietf:bcp:47",
                  "code": "en-US",
                  "display": "English (United States)"
                }
              ]
            },
            "preferred": true
          }
        ]
      },
      "request": {
        "method": "POST",
        "url": "Patient"
      }
    },
    {
      "fullUrl": "urn:uuid:2",
      "resource": {
        "resourceType": "Encounter",
        "id": "2",
        "status": "finished",
        "class": {
          "system": "http://terminology.hl7.org/CodeSystem/v3-ActCode",
          "code": "AMB",
          "display": "Ambulatory"
        },
        "type": [
          {
            "coding": [
              {
                "system": "http://terminology.hl7.org/CodeSystem/encounter-type",
                "code": "AMB",
                "display": "Ambulatory"
              }
            ]
          }
        ],
        "subject": {
          "reference": "urn:uuid:1"
        }
      },
      "request": {
        "method": "POST",
        "url": "Encounter"
      }
    },
    {
      "fullUrl": "urn:uuid:3",
      "resource": {
        "resourceType": "Observation",
        "id": "3",
        "status": "final",
        "code": {
          "coding": [
            {
              "system": "http://loinc.org",
              "code": "22322-2",
              "display": "Hepatitis A virus IgM antibody [Presence] in Serum by Immunoassay"
            }
          ]
        },
        "subject": {
          "reference": "urn:uuid:1"
        },
        "interpretation": [
          {
            "coding": [
              {
                "system": "http://terminology.hl7.org/CodeSystem/v3-ObservationInterpretation",
                "code": "POS",
                "display": "Positive"
              }
            ]
          }
        ]
      },
      "request": {
        "method": "POST",
        "url": "Observation"
      }
    },
    {
      "fullUrl": "urn:uuid:4",
      "resource": {
        "resourceType": "Observation",
        "id": "4",
        "status": "final",
        "code": {
          "coding": [
            {
              "system": "http://loinc.org",
              "code": "22320-6",
              "display": "Hepatitis A virus IgG Ab [Presence] in Serum by Immunoassay"
            }
          ]
        },
        "subject": {
          "reference": "urn:uuid:1"
        },
        "interpretation": [
          {
            "coding": [
              {
                "system": "http://terminology.hl7.org/CodeSystem/v3-ObservationInterpretation",
                "code": "POS",
                "display": "Positive"
              }
            ]
          }
        ]
      },
      "request": {
        "method": "POST",
        "url": "Observation"
      }
    },
    {
      "fullUrl": "urn:uuid:5",
      "resource": {
        "resourceType": "Organization",
        "id": "5",
        "meta": {
          "profile": [
            "http://hl7.org/fhir/Organization"
          ]
        },
        "name": "Nelson Family Practice",
        "address": [
          {
            "line": [
              "123 Harbor St"
            ],
            "city": "Bright Falls",
            "state": "WA",
            "postalCode": "98440",
            "country": "United States"
          }
        ],
        "telecom": [
          {
            "system": "phone",
            "value": "206-555-0199",
            "use": "work"
          }
        ]
      },
      "request": {
        "method": "POST",
        "url": "Organization"
      }
    },
    {
      "fullUrl": "urn:uuid:6",
      "resource": {
        "resourceType": "Practitioner",
        "id": "6",
        "meta": {
          "profile": [
            "http://hl7.org/fhir/Practitioner"
          ]
        },
        "name": [
          {
            "family": "Nelson",
            "given": [
              "Emma"
            ],
            "prefix": [
              "Dr."
            ]
          }
        ]
      },
      "request": {
        "method": "POST",
        "url": "Practitioner"
      }
    },
    {
      "fullUrl": "urn:uuid:7",
      "resource": {
        "resourceType": "Composition",
        "id": "7",
        "meta": {
          "profile": [
            "http://hl7.org/fhir/Composition"
          ]
        },
        "status": "final",
        "type": {
          "coding": [
            {
              "system": "http://loinc.org",
              "code": "11506-3",
              "display": "Consultation note"
            }
          ]
        },
        "subject": {
          "reference": "Patient/1"
        },
        "date": "2024-02-07",
        "author": [
          {
            "reference": "Practitioner/6"
          }
        ],
        "title": "Hepatitis A Testing and Consultation",
        "custodian": {
          "reference": "Organization/5"
        },
        "section": [
          {
            "title": "Encounter",
            "entry": [
              {
                "reference": "urn:uuid:2"
              }
            ]
          },
          {
            "title": "Observations",
            "entry": [
              {
                "reference": "urn:uuid:3"
              },
              {
                "reference": "urn:uuid:4"
              }
            ]
          }
        ]
      },
      "request": {
        "method": "POST",
        "url": "Composition"
      }
    }
  ]
}
