{
  "resourceType": "Bundle",
  "type": "batch",
  "entry": [
    {
      "fullUrl": "urn:uuid:0ba33aad-9d76-6be3-4719-5157b6d19a77",
      "resource": {
        "resourceType": "Composition",
        "id": "0ba33aad-9d76-6be3-4719-5157b6d19a77",
        "meta": {
          "profile": [
            "http://hl7.org/fhir/us/ecr/StructureDefinition/eicr-composition"
          ]
        },
        "identifier": [
          {
            "use": "official",
            "type": {
              "coding": [
                {
                  "code": "55751-2",
                  "display": "Initial Public Health Case Report",
                  "system": "http://loinc.org"
                }
              ]
            },
            "value": "8675309a-7754-r2d2-c3p0-973d9f777777"
          }
        ],
        "extension": [
          {
            "url": "http://hl7.org/fhir/StructureDefinition/composition-clinicaldocument-versionNumber",
            "valueString": "2"
          }
        ],
        "status": "final",
        "type": {
          "coding": [
            {
              "code": "55751-2",
              "display": "Initial Public Health Case Report",
              "system": "http://loinc.org"
            }
          ]
        },
        "date": "2023-04-09T13:04:17-07:00",
        "title": "Initial Public Health Case Report",
        "confidentiality": "N",
        "section": [
          {
            "id": "b7a7ed08-af88-4a31-cc4e-8dddd58b7fc8",
            "title": "Miscellaneous Notes",
            "text": {
              "status": "generated",
              "div": "<div xmlns=\"http://www.w3.org/1999/xhtml\">Miscellaneous Notes</div>"
            },
            "code": {
              "coding": [
                {
                  "code": "10164-2",
                  "display": "HISTORY OF PRESENT ILLNESS",
                  "system": "http://loinc.org"
                }
              ]
            },
            "mode": "snapshot"
          },
          {
            "id": "BEB630CE-B12D-11EC-842B-C301D81100B2",
            "title": "Immunizations",
            "text": {
              "status": "generated",
              "div": "<div xmlns=\"http://www.w3.org/1999/xhtml\">Immunizations</div>"
            },
            "code": {
              "coding": [
                {
                  "code": "11369-6",
                  "display": "History of Immunization Narrative",
                  "system": "http://loinc.org"
                }
              ]
            },
            "mode": "snapshot"
          },
          {
            "id": "BEB6D4DE-B12D-11EC-842B-C301D81100B2",
            "title": "Administered Medications",
            "text": {
              "status": "generated",
              "div": "<div xmlns=\"http://www.w3.org/1999/xhtml\">Administered Medications</div>"
            },
            "code": {
              "coding": [
                {
                  "code": "29549-3",
                  "display": "MEDICATIONS ADMINISTERED",
                  "system": "http://loinc.org"
                }
              ]
            },
            "mode": "snapshot"
          },
          {
            "id": "c2281805-ec40-0a32-031b-1c709c70d1c1",
            "title": "Plan of Treatment",
            "text": {
              "status": "generated",
              "div": "<div xmlns=\"http://www.w3.org/1999/xhtml\">Plan of Treatment</div>"
            },
            "code": {
              "coding": [
                {
                  "code": "18776-5",
                  "display": "Plan of care note",
                  "system": "http://loinc.org"
                }
              ]
            },
            "mode": "snapshot"
          },
          {
            "id": "2E345F58-7C25-11ED-B3EC-C301D81100B2",
            "title": "Problems",
            "text": {
              "status": "generated",
              "div": "<div xmlns=\"http://www.w3.org/1999/xhtml\">Problems</div>"
            },
            "code": {
              "coding": [
                {
                  "code": "11450-4",
                  "display": "Problem list - Reported",
                  "system": "http://loinc.org"
                }
              ]
            },
            "mode": "snapshot",
            "entry": [
              {
                "display": "Problem - Bilateral malignant neoplasm of lower outer quadrant of breast in female",
                "reference": "Condition/c95cdea1-565f-e53b-4da9-86e0a7a0c9c6"
              },
              {
                "display": "Problem - Malignant neoplasm of overlapping sites of pancreas",
                "reference": "Condition/9ade5fa1-1a7d-63e2-fde7-66c1aae14728"
              },
              {
                "display": "Problem - Malignant neoplasm of urinary bladder neck",
                "reference": "Condition/c82b6d7b-28a5-1438-f04d-90354dc650ed"
              },
              {
                "display": "Problem - Headache",
                "reference": "Condition/4f962a2f-db60-0b87-20cc-557e17124451"
              },
              {
                "display": "Problem - Backache",
                "reference": "Condition/9e465247-8dbb-f778-dd7f-4d56c59485b5"
              },
              {
                "display": "Problem - Malignant neoplasm of lower-inner quadrant of left breast in female, estrogen receptor positive",
                "reference": "Condition/80db768f-19ea-f1d0-f9e5-22d854d7acc5"
              }
            ]
          },
          {
            "id": "eef25da4-bea1-2e77-4a0c-12f50e7be15e",
            "title": "Reason for Visit",
            "text": {
              "status": "generated",
              "div": "<div xmlns=\"http://www.w3.org/1999/xhtml\">Reason for Visit</div>"
            },
            "code": {
              "coding": [
                {
                  "code": "29299-5",
                  "display": "REASON FOR VISIT",
                  "system": "http://loinc.org"
                }
              ]
            },
            "mode": "snapshot",
            "extension": [
              {
                "url": "http://hl7.org/fhir/cda/ccda/StructureDefinition/2.16.840.1.113883.10.20.22.2.12",
                "valueString": "Not on file"
              }
            ]
          },
          {
            "id": "BEBC8CEE-B12D-11EC-842B-C301D81100B2",
            "title": "Results",
            "text": {
              "status": "generated",
              "div": "<div xmlns=\"http://www.w3.org/1999/xhtml\">Results</div>"
            },
            "code": {
              "coding": [
                {
                  "code": "30954-2",
                  "display": "Relevant diagnostic tests/laboratory data Narrative",
                  "system": "http://loinc.org"
                }
              ]
            },
            "mode": "snapshot",
            "entry": [
              {
                "display": "Campylobacter, NAAT",
                "reference": "Observation/fb09b47e-8d0d-da93-efa8-7a47b16a7160"
              },
              {
                "display": "C. Diff Toxin A/B, NAAT",
                "reference": "Observation/881b25ca-7bed-8901-a853-a385365425ae"
              },
              {
                "display": "Plesiomonas shigelloides, NAAT",
                "reference": "Observation/7bc2a15f-4d45-94e1-19e6-da5ab3c7626b"
              },
              {
                "display": "Salmonella, NAAT",
                "reference": "Observation/087b3b57-c13b-9381-2788-8d89acd6cddf"
              },
              {
                "display": "Vibrio, NAAT",
                "reference": "Observation/0f2abbe5-3345-e3b7-823a-8f1c312ccd45"
              },
              {
                "display": "Vibrio cholerae, NAAT",
                "reference": "Observation/356e31c0-d25c-90b0-6e7e-371a501c5487"
              },
              {
                "display": "Yersinia enterocolitica, NAAT",
                "reference": "Observation/24b44a1a-8e63-904e-0b75-33cabceccb6b"
              },
              {
                "display": "E. Coli O157, NAAT",
                "reference": "Observation/b3ac8de1-fe7d-96de-9a9d-b53282cb2944"
              },
              {
                "display": "E. Coli (EAEC), NAAT",
                "reference": "Observation/e8ca029e-79e3-d321-da20-508a088c121e"
              },
              {
                "display": "E. Coli (EPEC), NAAT",
                "reference": "Observation/3e9aa930-cb71-8510-1804-b4b686bcd0c2"
              },
              {
                "display": "E. Coli (ETEC), NAAT",
                "reference": "Observation/63b4564e-9a61-7ea5-9b7e-b461c1d2b945"
              },
              {
                "display": "Shiga-Like Toxin E. Coli (STEC), NAAT",
                "reference": "Observation/04a2c208-a10a-3140-80be-5dfea431f658"
              },
              {
                "display": "Shigella/EIEC, NAAT",
                "reference": "Observation/9c9c405b-f8b6-5f52-d8ff-a82dd2710520"
              },
              {
                "display": "Cryptosporidium, NAAT",
                "reference": "Observation/5ccc5dc4-b346-ee44-9b33-f1799b2380a9"
              },
              {
                "display": "Cyclospora cayetanensis, NAAT",
                "reference": "Observation/2ea066cd-a9c1-3630-4af8-3c8994f5c7e6"
              },
              {
                "display": "E. histolytica, NAAT",
                "reference": "Observation/e81da695-bd55-e66c-3e12-2e93ad74b565"
              },
              {
                "display": "Giardia lamblia, NAAT",
                "reference": "Observation/a997d510-8367-3ad5-b933-241daa80d1cb"
              },
              {
                "display": "Adenovirus F 40/41, NAAT",
                "reference": "Observation/9692f1db-8e70-3c78-fa41-d3008dea68a5"
              },
              {
                "display": "Astrovirus, NAAT",
                "reference": "Observation/93b66f86-4201-eab2-3f88-dd3922934258"
              },
              {
                "display": "Norovirus, NAAT",
                "reference": "Observation/b159112f-011d-bf96-92d4-297e2a982b4a"
              },
              {
                "display": "Rotavirus A, NAAT",
                "reference": "Observation/5268eef3-cd33-66cd-c431-44844144b0d4"
              },
              {
                "display": "Sapovirus, NAAT",
                "reference": "Observation/644e9428-6ffa-cf12-ed87-22edad72f951"
              },
              {
                "display": "Lab Interpretation",
                "reference": "Observation/871dfa80-44de-7e07-dca1-91480e5e9612"
              }
            ]
          },
          {
            "id": "43acaa4f-b9a0-4929-fee8-3ddb3a1f1b9b",
            "title": "Social History",
            "text": {
              "status": "generated",
              "div": "<div xmlns=\"http://www.w3.org/1999/xhtml\">Social History</div>"
            },
            "code": {
              "coding": [
                {
                  "code": "29762-2",
                  "display": "Social history Narrative",
                  "system": "http://loinc.org"
                }
              ]
            },
            "mode": "snapshot"
          },
          {
            "id": "1c9d174a-453f-95be-898b-9b19b64a31ec",
            "title": "Pregnancy Section",
            "text": {
              "status": "generated",
              "div": "<div xmlns=\"http://www.w3.org/1999/xhtml\">Pregnancy Section</div>"
            },
            "code": {
              "coding": [
                {
                  "code": "90767-5",
                  "display": "Pregnancy summary Document",
                  "system": "http://loinc.org"
                }
              ]
            },
            "mode": "snapshot"
          },
          {
            "id": "4faab866-6387-d1a0-d6e5-3fabc9aac8cf",
            "title": "Encounter Details",
            "text": {
              "status": "generated",
              "div": "<div xmlns=\"http://www.w3.org/1999/xhtml\">Encounter Details</div>"
            },
            "code": {
              "coding": [
                {
                  "code": "46240-8",
                  "display": "History of Hospitalizations+Outpatient visits Narrative",
                  "system": "http://loinc.org"
                }
              ]
            },
            "mode": "snapshot"
          },
          {
            "id": "3a7c8ad4-466f-ae5f-2e55-05bf5c8860e1",
            "title": "Reportability Response Information Section",
            "text": {
              "status": "generated",
              "div": "<div xmlns=\"http://www.w3.org/1999/xhtml\">Reportability Response Information Section</div>"
            },
            "extension": [
              {
                "url": "http://hl7.org/fhir/us/ecr/StructureDefinition/rr-composition",
                "valueIdentifier": {
                  "use": "official",
                  "type": {
                    "coding": [
                      {
                        "code": "88085-6",
                        "display": "Reportability response report Document Public health",
                        "system": "http://loinc.org"
                      }
                    ]
                  },
                  "value": "10123456-be91-4444-8888-9c12c0a6edc0"
                }
              },
              {
                "url": "http://hl7.org/fhir/us/ecr/StructureDefinition/rr-eicr-processing-status-extension",
                "valueCodeableConcept": {
                  "coding": [
                    {
                      "code": "RRVS19",
                      "display": "eICR processed",
                      "system": "urn:oid:2.16.840.1.114222.4.5.274"
                    }
                  ]
                }
              }
            ],
            "code": {
              "coding": [
                {
                  "code": "88085-6",
                  "display": "Reportability response report Document Public health",
                  "system": "http://loinc.org"
                }
              ]
            },
            "entry": [
              {
                "display": "Relevant Reportable Condition Observation - Cyclosporiasis (disorder)",
                "reference": "Observation/f61d4bbc-d1d5-4bef-b2f6-d32e8db54596"
              },
              {
                "display": "Relevant Reportable Condition Observation - Cyclosporiasis (disorder)",
                "reference": "Observation/ef6c19e4-cc1a-4c09-8c48-a8ae2da78dfc"
              }
            ]
          }
        ],
        "subject": {
          "reference": "Patient/34080650-1e86-08fe-c2c9-faa37629edd3"
        },
        "encounter": {
          "reference": "Encounter/b99ed74e-acf4-992c-48e3-6d88d7414248"
        },
        "custodian": {
          "reference": "Organization/401e4e5a-69e1-bdf6-7016-6aa11dfdd01f"
        },
        "author": [
          {
            "reference": "Practitioner/80746d38-56d1-93cd-febe-13ad0807a14b"
          },
          {
            "reference": "Device/3cd5a00e-5ed8-c2a6-4be2-dbe915111561"
          }
        ]
      },
      "request": {
        "method": "PUT",
        "url": "Composition/0ba33aad-9d76-6be3-4719-5157b6d19a77"
      }
    },
    {
      "fullUrl": "urn:uuid:b99ed74e-acf4-992c-48e3-6d88d7414248",
      "resource": {
        "resourceType": "Encounter",
        "id": "b99ed74e-acf4-992c-48e3-6d88d7414248",
        "status": "unknown",
        "class": {
          "code": "AMB",
          "display": "Ambulatory",
          "system": "urn:oid:2.16.840.1.113883.5.4"
        },
        "identifier": [
          {
            "system": "urn:oid:1.2.840.114350.1.13.297.3.7.3.698084.8",
            "value": "555555547455"
          }
        ],
        "period": {
          "start": "2023-02-12",
          "end": "2023-02-12"
        },
        "subject": {
          "reference": "Patient/34080650-1e86-08fe-c2c9-faa37629edd3"
        },
        "location": [
          {
            "id": "1.2.840.114350.1.13.297.3.7.2.686980",
            "location": {
              "reference": "Location/c32f95de-ab42-7854-3caf-a820a71322ec",
              "display": "PROVIDENCE SAINT JOHN'S HEALTH CTR CLINICAL LABORATORY"
            },
            "extension": [
              {
                "url": "http://build.fhir.org/ig/HL7/case-reporting/StructureDefinition-us-ph-location-definitions.html#Location.type",
                "valueCodeableConcept": {
                  "coding": [
                    {
                      "code": "257622000",
                      "display": "Healthcare Facility",
                      "system": "http://snomed.info/sct"
                    }
                  ]
                }
              }
            ]
          }
        ],
        "participant": [
          {
            "type": [
              {
                "coding": [
                  {
                    "system": "http://terminology.hl7.org/CodeSystem/v3-ParticipationType",
                    "code": "ATND"
                  }
                ]
              }
            ],
            "individual": {
              "reference": "Practitioner/d48741a4-3f35-4a35-614b-aa714f9b9f88"
            }
          }
        ]
      },
      "request": {
        "method": "PUT",
        "url": "Encounter/b99ed74e-acf4-992c-48e3-6d88d7414248"
      }
    },
    {
      "fullUrl": "urn:uuid:c32f95de-ab42-7854-3caf-a820a71322ec",
      "resource": {
        "resourceType": "Location",
        "id": "c32f95de-ab42-7854-3caf-a820a71322ec",
        "identifier": [
          {
            "value": "1.2.840.114350.1.13.297.3.7.2.686980"
          }
        ],
        "name": "PROVIDENCE SAINT JOHN'S HEALTH CTR CLINICAL LABORATORY",
        "address": {
          "use": "work",
          "line": [
            "2121 Santa Monica Blvd"
          ],
          "city": "Santa Monica",
          "state": "CA",
          "country": "USA",
          "postalCode": "90404-2303",
          "district": "LOS ANGELES"
        },
        "type": [
          {
            "coding": [
              {
                "code": "257622000",
                "display": "Healthcare Facility",
                "system": "http://snomed.info/sct"
              }
            ]
          }
        ]
      },
      "request": {
        "method": "PUT",
        "url": "Location/c32f95de-ab42-7854-3caf-a820a71322ec"
      }
    },
    {
      "fullUrl": "urn:uuid:d48741a4-3f35-4a35-614b-aa714f9b9f88",
      "resource": {
        "resourceType": "Practitioner",
        "id": "d48741a4-3f35-4a35-614b-aa714f9b9f88",
        "meta": {
          "profile": [
            "http://hl7.org/fhir/us/core/StructureDefinition/us-core-practitioner"
          ]
        },
        "extension": [
          {
            "url": "http://hl7.org/fhir/StructureDefinition/_datatype",
            "valueString": "Responsible Party"
          }
        ],
        "identifier": [
          {
            "system": "urn:ietf:rfc:3986",
            "value": "urn:uuid:787878-5656"
          }
        ],
        "name": [
          {
            "use": "usual",
            "text": "Providence California"
          }
        ],
        "address": [
          {
            "use": "work",
            "line": [
              "4733 TORRANCE BLVD #4400"
            ],
            "city": "TORRANCE",
            "state": "CA",
            "country": "USA",
            "postalCode": "90503",
            "district": "LOS ANGELES"
          }
        ]
      },
      "request": {
        "method": "PUT",
        "url": "Practitioner/d48741a4-3f35-4a35-614b-aa714f9b9f88"
      }
    },
    {
      "fullUrl": "urn:uuid:f61d4bbc-d1d5-4bef-b2f6-d32e8db54596",
      "resource": {
        "resourceType": "Observation",
        "id": "f61d4bbc-d1d5-4bef-b2f6-d32e8db54596",
        "meta": {
          "profile": [
            "http://hl7.org/fhir/us/core/StructureDefinition/us-core-observationresults"
          ]
        },
        "identifier": [
          {
            "system": "urn:ietf:rfc:3986",
            "value": "urn:uuid:f61d4bbc-d1d5-4bef-b2f6-d32e8db54596"
          }
        ],
        "status": "final",
        "code": {
          "coding": [
            {
              "code": "64572001",
              "display": "Condition",
              "system": "http://snomed.info/sct"
            },
            {
              "code": "75323-6",
              "display": "Condition",
              "system": "http://loinc.org"
            }
          ]
        },
        "valueCodeableConcept": {
          "coding": [
            {
              "code": "240372001",
              "display": "Cyclosporiasis (disorder)",
              "system": "http://snomed.info/sct"
            }
          ]
        }
      },
      "request": {
        "method": "PUT",
        "url": "Observation/f61d4bbc-d1d5-4bef-b2f6-d32e8db54596"
      }
    },
    {
      "fullUrl": "urn:uuid:ef6c19e4-cc1a-4c09-8c48-a8ae2da78dfc",
      "resource": {
        "resourceType": "Observation",
        "id": "ef6c19e4-cc1a-4c09-8c48-a8ae2da78dfc",
        "meta": {
          "profile": [
            "http://hl7.org/fhir/us/core/StructureDefinition/us-core-observationresults"
          ]
        },
        "identifier": [
          {
            "system": "urn:ietf:rfc:3986",
            "value": "urn:uuid:ef6c19e4-cc1a-4c09-8c48-a8ae2da78dfc"
          }
        ],
        "status": "final",
        "code": {
          "coding": [
            {
              "code": "64572001",
              "display": "Condition",
              "system": "http://snomed.info/sct"
            },
            {
              "code": "75323-6",
              "display": "Condition",
              "system": "http://loinc.org"
            }
          ]
        },
        "valueCodeableConcept": {
          "coding": [
            {
              "code": "240372001",
              "display": "Cyclosporiasis (disorder)",
              "system": "http://snomed.info/sct"
            }
          ]
        }
      },
      "request": {
        "method": "PUT",
        "url": "Observation/ef6c19e4-cc1a-4c09-8c48-a8ae2da78dfc"
      }
    },
    {
      "fullUrl": "urn:uuid:401e4e5a-69e1-bdf6-7016-6aa11dfdd01f",
      "resource": {
        "resourceType": "Organization",
        "id": "401e4e5a-69e1-bdf6-7016-6aa11dfdd01f",
        "identifier": [
          {
            "system": "urn:oid:1.2.840.114350.1.13.297.3.7.2.696570",
            "value": "50"
          }
        ],
        "name": "Providence California",
        "address": [
          {
            "use": "work",
            "line": [
              "4733 TORRANCE BLVD #4400"
            ],
            "city": "TORRANCE",
            "state": "CA",
            "country": "USA",
            "postalCode": "90503",
            "district": "LOS ANGELES"
          }
        ],
        "telecom": [
          {
            "system": "phone",
            "value": "+1-855-415-6179",
            "use": "work"
          }
        ]
      },
      "request": {
        "method": "PUT",
        "url": "Organization/401e4e5a-69e1-bdf6-7016-6aa11dfdd01f"
      }
    },
    {
      "fullUrl": "urn:uuid:80746d38-56d1-93cd-febe-13ad0807a14b",
      "resource": {
        "resourceType": "Practitioner",
        "id": "80746d38-56d1-93cd-febe-13ad0807a14b",
        "meta": {
          "profile": [
            "http://hl7.org/fhir/us/core/StructureDefinition/us-core-practitioner"
          ]
        },
        "identifier": [
          {
            "system": "urn:oid:1.2.840.114350.1.13.297.3.7.2.697780",
            "value": "LABBACKGROUND"
          }
        ],
        "name": [
          {
            "family": "Lab",
            "given": [
              "Background"
            ]
          },
          {
            "use": "usual",
            "text": "Providence California"
          }
        ],
        "address": [
          {
            "use": "work",
            "line": [
              "4733 TORRANCE BLVD #4400"
            ],
            "city": "TORRANCE",
            "state": "CA",
            "country": "USA",
            "postalCode": "90503",
            "district": "LOS ANGELES"
          }
        ]
      },
      "request": {
        "method": "PUT",
        "url": "Practitioner/80746d38-56d1-93cd-febe-13ad0807a14b"
      }
    },
    {
      "fullUrl": "urn:uuid:3cd5a00e-5ed8-c2a6-4be2-dbe915111561",
      "resource": {
        "resourceType": "Device",
        "id": "3cd5a00e-5ed8-c2a6-4be2-dbe915111561",
        "identifier": [
          {
            "system": "urn:oid:1.2.840.114350.1.1",
            "value": "10.1"
          }
        ],
        "type": {
          "coding": [
            {
              "display": "Epic - Version 10.1"
            }
          ]
        },
        "manufacturer": "Epic - Version 10.1",
        "version": [
          {
            "value": "Epic - Version 10.1"
          }
        ],
        "owner": {
          "reference": "Organization/401e4e5a-69e1-bdf6-7016-6aa11dfdd01f"
        }
      },
      "request": {
        "method": "PUT",
        "url": "Device/3cd5a00e-5ed8-c2a6-4be2-dbe915111561"
      }
    },
    {
      "fullUrl": "urn:uuid:06620f3f-52ed-4c23-8c08-28fe1af82384",
      "resource": {
        "resourceType": "Observation",
        "id": "06620f3f-52ed-4c23-8c08-28fe1af82384",
        "meta": {
          "profile": [
            "http://hl7.org/fhir/us/core/StructureDefinition/us-core-observationresults"
          ]
        },
        "identifier": [
          {
            "system": "urn:oid:1.2.840.114350.1.13.297.3.7.1.1040.1",
            "value": "Z36789^^72166-2"
          }
        ],
        "category": [
          {
            "coding": [
              {
                "system": "http://terminology.hl7.org/CodeSystem/observation-category",
                "code": "social-history"
              }
            ]
          }
        ],
        "status": "final",
        "code": {
          "coding": [
            {
              "code": "72166-2",
              "display": "Tobacco smoking status NHIS",
              "system": "http://loinc.org"
            }
          ]
        },
        "valueCodeableConcept": {
          "coding": [
            {
              "code": "266927001",
              "display": "Tobacco smoking consumption unknown",
              "system": "http://snomed.info/sct"
            }
          ]
        },
        "subject": {
          "reference": "Patient/34080650-1e86-08fe-c2c9-faa37629edd3"
        }
      },
      "request": {
        "method": "PUT",
        "url": "Observation/06620f3f-52ed-4c23-8c08-28fe1af82384"
      }
    },
    {
      "fullUrl": "urn:uuid:cfdf3db5-8b75-a572-9845-ebe5cdcba5a8",
      "resource": {
        "resourceType": "Observation",
        "id": "cfdf3db5-8b75-a572-9845-ebe5cdcba5a8",
        "meta": {
          "profile": [
            "http://hl7.org/fhir/us/ecr/StructureDefinition/us-ph-characteristics-of-home-environment"
          ]
        },
        "identifier": [
          {
            "system": "urn:ietf:rfc:3986",
            "value": "urn:uuid:37f76c51-6411-4e1d-8a37-957fd49d2ceg"
          }
        ],
        "category": [
          {
            "coding": [
              {
                "system": "http://terminology.hl7.org/CodeSystem/observation-category",
                "code": "social-history"
              }
            ]
          }
        ],
        "status": "final",
        "code": {
          "coding": [
            {
              "code": "75274-1",
              "display": "Characteristics of residence",
              "system": "http://loinc.org"
            }
          ]
        },
        "effectiveDateTime": "2013-03-12",
        "valueCodeableConcept": {
          "coding": [
            {
              "code": "308899009",
              "display": "unsatisfactory living conditions (finding)",
              "system": "http://snomed.info/sct"
            }
          ]
        },
        "subject": {
          "reference": "Patient/34080650-1e86-08fe-c2c9-faa37629edd3"
        }
      },
      "request": {
        "method": "PUT",
        "url": "Observation/cfdf3db5-8b75-a572-9845-ebe5cdcba5a8"
      }
    },
    {
      "fullUrl": "urn:uuid:a29f2ac5-0e14-8f4c-e99b-77ac6faf177c",
      "resource": {
        "resourceType": "Observation",
        "id": "a29f2ac5-0e14-8f4c-e99b-77ac6faf177c",
        "meta": {
          "profile": [
            "http://hl7.org/fhir/us/ecr/StructureDefinition/us-ph-disability-status"
          ]
        },
        "identifier": [
          {
            "system": "urn:ietf:rfc:3986",
            "value": "urn:uuid:c09ac074-605e-47bd-8b1c-735e7321fbc2"
          }
        ],
        "category": [
          {
            "coding": [
              {
                "system": "http://terminology.hl7.org/CodeSystem/observation-category",
                "code": "social-history"
              }
            ]
          }
        ],
        "status": "final",
        "code": {
          "coding": [
            {
              "code": "69856-3",
              "display": "Are you deaf, or do you have serious difficulty hearing [HHS.ACA Section 4302]",
              "system": "http://loinc.org"
            }
          ]
        },
        "effectiveDateTime": "2020-11-09",
        "valueBoolean": true,
        "subject": {
          "reference": "Patient/34080650-1e86-08fe-c2c9-faa37629edd3"
        }
      },
      "request": {
        "method": "PUT",
        "url": "Observation/a29f2ac5-0e14-8f4c-e99b-77ac6faf177c"
      }
    },
    {
      "fullUrl": "urn:uuid:34080650-1e86-08fe-c2c9-faa37629edd3",
      "resource": {
        "resourceType": "Patient",
        "id": "34080650-1e86-08fe-c2c9-faa37629edd3",
        "meta": {
          "profile": [
            "http://hl7.org/fhir/us/core/StructureDefinition/us-core-patient"
          ]
        },
        "identifier": [
          {
            "system": "urn:oid:1.2.840.114350.1.13.297.3.7.3.688884.100",
            "value": "MRN8675309"
          }
        ],
        "name": [
          {
            "use": "official",
            "family": "Girl",
            "given": [
              "Jessies"
            ]
          }
        ],
        "birthDate": "1981-02-14",
        "gender": "female",
        "extension": [
          {
            "url": "http://hl7.org/fhir/us/core/StructureDefinition/us-core-race",
            "extension": [
              {
                "url": "ombCategory",
                "valueCoding": {
                  "system": "http://terminology.hl7.org/CodeSystem/v3-NullFlavor",
                  "code": "UNK",
                  "display": "Unknown"
                }
              },
              {
                "url": "text",
                "valueString": "Unknown"
              }
            ]
          },
          {
            "url": "http://hl7.org/fhir/us/core/StructureDefinition/us-core-ethnicity",
            "extension": [
              {
                "url": "ombCategory",
                "valueCoding": {
                  "system": "http://terminology.hl7.org/CodeSystem/v3-NullFlavor",
                  "code": "UNK",
                  "display": "Unknown"
                }
              },
              {
                "url": "text",
                "valueString": "Unknown"
              }
            ]
          },
          {
            "url": "http://hl7.org/fhir/us/core/StructureDefinition/us-core-birthsex",
            "extension": [
              {
                "url": "value",
                "valueCodeableConcept": {
                  "coding": [
                    {
                      "code": "M",
                      "display": "Male",
                      "system": "urn:oid:2.16.840.1.113883.5.1"
                    }
                  ]
                }
              }
            ]
          },
          {
            "url": "http://hl7.org/fhir/us/ecr/StructureDefinition/us-ph-genderidentity-extension",
            "extension": [
              {
                "url": "value",
                "valueCodeableConcept": {
                  "coding": [
                    {
                      "code": "446141000124107",
                      "display": "Identifies as female gender (finding)",
                      "system": "http://snomed.info/sct"
                    }
                  ]
                }
              }
            ]
          },
          {
            "url": "http://hl7.org/fhir/us/ecr/StructureDefinition/us-ph-tribal-affiliation-extension",
            "extension": [
              {
                "url": "TribeName",
                "valueCoding": {
                  "code": "91",
                  "display": "Fort Mojave Indian Tribe of Arizona, California",
                  "system": "http://terminology.hl7.org/CodeSystem/v3-TribalEntityUS"
                }
              },
              {
                "url": "EnrolledTribeMember",
                "valueBoolean": true
              }
            ]
          },
          {
            "url": "http://hl7.org/fhir/us/ecr/StructureDefinition/us-ph-tribal-affiliation-extension",
            "extension": [
              {
                "url": "TribeName",
                "valueCoding": {
                  "code": "338",
                  "display": "Native Village of Afognak",
                  "system": "http://terminology.hl7.org/CodeSystem/v3-TribalEntityUS"
                }
              },
              {
                "url": "EnrolledTribeMember",
                "valueBoolean": false
              }
            ]
          }
        ],
        "address": [
          {
            "use": "home",
            "line": [
              "123 FAKE ST"
            ],
            "city": "LOS ANGELES",
            "state": "CA",
            "country": "USA",
            "postalCode": "90062"
          }
        ],
        "communication": [
          {
            "language": {
              "coding": [
                {
                  "system": "urn:ietf:bcp:47",
                  "code": "en",
                  "display": "English"
                }
              ]
            },
            "preferred": true
          }
        ]
      },
      "request": {
        "method": "PUT",
        "url": "Patient/34080650-1e86-08fe-c2c9-faa37629edd3"
      }
    },
    {
      "fullUrl": "urn:uuid:c95cdea1-565f-e53b-4da9-86e0a7a0c9c6",
      "resource": {
        "resourceType": "Condition",
        "id": "c95cdea1-565f-e53b-4da9-86e0a7a0c9c6",
        "identifier": [
          {
            "system": "urn:oid:1.2.840.114350.1.13.297.3.7.2.768076",
            "value": "11257"
          }
        ],
        "clinicalStatus": {
          "coding": [
            {
              "code": "55561003",
              "display": "Active",
              "system": "http://snomed.info/sct"
            }
          ]
        },
        "category": [
          {
            "coding": [
              {
                "code": "problem-item-list",
                "display": "Problem List Item",
                "system": "http://hl7.org/fhir/us/core/ValueSet/us-core-condition-category"
              }
            ]
          }
        ],
        "code": {
          "coding": [
            {
              "code": "C50.511",
              "display": "Bilateral malignant neoplasm of lower outer quadrant of breast in female",
              "system": "urn:oid:2.16.840.1.113883.6.90"
            }
          ]
        },
        "onsetDateTime": "2017-02-27",
        "subject": {
          "reference": "Patient/34080650-1e86-08fe-c2c9-faa37629edd3"
        }
      },
      "request": {
        "method": "PUT",
        "url": "Condition/c95cdea1-565f-e53b-4da9-86e0a7a0c9c6"
      }
    },
    {
      "fullUrl": "urn:uuid:9ade5fa1-1a7d-63e2-fde7-66c1aae14728",
      "resource": {
        "resourceType": "Condition",
        "id": "9ade5fa1-1a7d-63e2-fde7-66c1aae14728",
        "identifier": [
          {
            "system": "urn:oid:1.2.840.114350.1.13.297.3.7.2.768076",
            "value": "18792"
          }
        ],
        "clinicalStatus": {
          "coding": [
            {
              "code": "55561003",
              "display": "Active",
              "system": "http://snomed.info/sct"
            }
          ]
        },
        "category": [
          {
            "coding": [
              {
                "code": "problem-item-list",
                "display": "Problem List Item",
                "system": "http://hl7.org/fhir/us/core/ValueSet/us-core-condition-category"
              }
            ]
          }
        ],
        "code": {
          "coding": [
            {
              "code": "C25.8",
              "display": "Malignant neoplasm of overlapping sites of pancreas",
              "system": "urn:oid:2.16.840.1.113883.6.90"
            }
          ]
        },
        "onsetDateTime": "2017-09-18",
        "subject": {
          "reference": "Patient/34080650-1e86-08fe-c2c9-faa37629edd3"
        }
      },
      "request": {
        "method": "PUT",
        "url": "Condition/9ade5fa1-1a7d-63e2-fde7-66c1aae14728"
      }
    },
    {
      "fullUrl": "urn:uuid:c82b6d7b-28a5-1438-f04d-90354dc650ed",
      "resource": {
        "resourceType": "Condition",
        "id": "c82b6d7b-28a5-1438-f04d-90354dc650ed",
        "identifier": [
          {
            "system": "urn:oid:1.2.840.114350.1.13.297.3.7.2.768076",
            "value": "79322"
          }
        ],
        "clinicalStatus": {
          "coding": [
            {
              "code": "55561003",
              "display": "Active",
              "system": "http://snomed.info/sct"
            }
          ]
        },
        "category": [
          {
            "coding": [
              {
                "code": "problem-item-list",
                "display": "Problem List Item",
                "system": "http://hl7.org/fhir/us/core/ValueSet/us-core-condition-category"
              }
            ]
          }
        ],
        "code": {
          "coding": [
            {
              "code": "C67.5",
              "display": "Malignant neoplasm of urinary bladder neck",
              "system": "urn:oid:2.16.840.1.113883.6.90"
            }
          ]
        },
        "onsetDateTime": "2021-11-05",
        "subject": {
          "reference": "Patient/34080650-1e86-08fe-c2c9-faa37629edd3"
        }
      },
      "request": {
        "method": "PUT",
        "url": "Condition/c82b6d7b-28a5-1438-f04d-90354dc650ed"
      }
    },
    {
      "fullUrl": "urn:uuid:4f962a2f-db60-0b87-20cc-557e17124451",
      "resource": {
        "resourceType": "Condition",
        "id": "4f962a2f-db60-0b87-20cc-557e17124451",
        "identifier": [
          {
            "system": "urn:oid:1.2.840.114350.1.13.297.3.7.2.768076",
            "value": "95240"
          }
        ],
        "clinicalStatus": {
          "coding": [
            {
              "code": "55561003",
              "display": "Active",
              "system": "http://snomed.info/sct"
            }
          ]
        },
        "category": [
          {
            "coding": [
              {
                "code": "problem-item-list",
                "display": "Problem List Item",
                "system": "http://hl7.org/fhir/us/core/ValueSet/us-core-condition-category"
              }
            ]
          }
        ],
        "code": {
          "coding": [
            {
              "code": "R51.9",
              "display": "Headache",
              "system": "urn:oid:2.16.840.1.113883.6.90"
            }
          ]
        },
        "onsetDateTime": "2022-08-19",
        "subject": {
          "reference": "Patient/34080650-1e86-08fe-c2c9-faa37629edd3"
        }
      },
      "request": {
        "method": "PUT",
        "url": "Condition/4f962a2f-db60-0b87-20cc-557e17124451"
      }
    },
    {
      "fullUrl": "urn:uuid:9e465247-8dbb-f778-dd7f-4d56c59485b5",
      "resource": {
        "resourceType": "Condition",
        "id": "9e465247-8dbb-f778-dd7f-4d56c59485b5",
        "identifier": [
          {
            "system": "urn:oid:1.2.840.114350.1.13.297.3.7.2.768076",
            "value": "95252"
          }
        ],
        "clinicalStatus": {
          "coding": [
            {
              "code": "55561003",
              "display": "Active",
              "system": "http://snomed.info/sct"
            }
          ]
        },
        "category": [
          {
            "coding": [
              {
                "code": "problem-item-list",
                "display": "Problem List Item",
                "system": "http://hl7.org/fhir/us/core/ValueSet/us-core-condition-category"
              }
            ]
          }
        ],
        "code": {
          "coding": [
            {
              "code": "M54.9",
              "display": "Backache",
              "system": "urn:oid:2.16.840.1.113883.6.90"
            }
          ]
        },
        "onsetDateTime": "2022-08-19",
        "subject": {
          "reference": "Patient/34080650-1e86-08fe-c2c9-faa37629edd3"
        }
      },
      "request": {
        "method": "PUT",
        "url": "Condition/9e465247-8dbb-f778-dd7f-4d56c59485b5"
      }
    },
    {
      "fullUrl": "urn:uuid:80db768f-19ea-f1d0-f9e5-22d854d7acc5",
      "resource": {
        "resourceType": "Condition",
        "id": "80db768f-19ea-f1d0-f9e5-22d854d7acc5",
        "identifier": [
          {
            "system": "urn:oid:1.2.840.114350.1.13.297.3.7.2.768076",
            "value": "100952"
          }
        ],
        "clinicalStatus": {
          "coding": [
            {
              "code": "55561003",
              "display": "Active",
              "system": "http://snomed.info/sct"
            }
          ]
        },
        "category": [
          {
            "coding": [
              {
                "code": "problem-item-list",
                "display": "Problem List Item",
                "system": "http://hl7.org/fhir/us/core/ValueSet/us-core-condition-category"
              }
            ]
          }
        ],
        "code": {
          "coding": [
            {
              "code": "C50.312",
              "display": "Malignant neoplasm of lower-inner quadrant of left breast in female, estrogen receptor positive",
              "system": "urn:oid:2.16.840.1.113883.6.90"
            }
          ]
        },
        "onsetDateTime": "2022-12-14",
        "subject": {
          "reference": "Patient/34080650-1e86-08fe-c2c9-faa37629edd3"
        }
      },
      "request": {
        "method": "PUT",
        "url": "Condition/80db768f-19ea-f1d0-f9e5-22d854d7acc5"
      }
    },
    {
      "fullUrl": "urn:uuid:9352e206-8f8f-fa9c-4f40-2e8a6dc6795a",
      "resource": {
        "resourceType": "Observation",
        "id": "9352e206-8f8f-fa9c-4f40-2e8a6dc6795a",
        "meta": {
          "profile": [
            "http://hl7.org/fhir/us/ecr/StructureDefinition/us-ph-pregnancy-status-observation"
          ]
        },
        "identifier": [
          {
            "system": "urn:ietf:rfc:3986",
            "value": "urn:uuid:beee38ad-68a4-45fd-9a8b-2d2c4ab4bb6a"
          }
        ],
        "category": [
          {
            "coding": [
              {
                "system": "http://terminology.hl7.org/CodeSystem/observation-category",
                "code": "exam"
              }
            ]
          }
        ],
        "status": "final",
        "code": {
          "coding": [
            {
              "code": "ASSERTION",
              "system": "urn:oid:2.16.840.1.113883.5.4"
            }
          ]
        },
        "effectivePeriod": {
          "start": "2017-08-26"
        },
        "valueCodeableConcept": {
          "coding": [
            {
              "code": "77386006",
              "display": "Pregnant",
              "system": "http://snomed.info/sct"
            }
          ]
        },
        "subject": {
          "reference": "Patient/34080650-1e86-08fe-c2c9-faa37629edd3"
        }
      },
      "request": {
        "method": "PUT",
        "url": "Observation/9352e206-8f8f-fa9c-4f40-2e8a6dc6795a"
      }
    },
    {
      "fullUrl": "urn:uuid:eabd2fd6-66bd-7953-34e6-bb4b22a7c9e6",
      "resource": {
        "resourceType": "DiagnosticReport",
        "id": "eabd2fd6-66bd-7953-34e6-bb4b22a7c9e6",
        "identifier": [
          {
            "system": "urn:oid:1.2.840.114350.1.13.297.3.7.2.798268",
            "value": "1546468"
          }
        ],
        "status": "final",
        "code": {
          "coding": [
            {
              "code": "LAB10082",
              "display": "STOOL PATHOGENS, NAAT, 12 TO 25 TARGETS",
              "system": "http://www.ama-assn.org/go/cpt"
            }
          ]
        },
        "effectivePeriod": {
          "start": "2023-01-31T18:52:00Z",
          "end": "2022-01-31T18:52:00Z"
        },
        "subject": {
          "reference": "Patient/34080650-1e86-08fe-c2c9-faa37629edd3"
        },
        "performer": [
          {
            "reference": "Organization/0e0189fd-d651-3e89-03fc-d94b0d48c462"
          }
        ],
        "result": [
          {
            "reference": "Observation/fb09b47e-8d0d-da93-efa8-7a47b16a7160"
          },
          {
            "reference": "Observation/881b25ca-7bed-8901-a853-a385365425ae"
          },
          {
            "reference": "Observation/7bc2a15f-4d45-94e1-19e6-da5ab3c7626b"
          },
          {
            "reference": "Observation/087b3b57-c13b-9381-2788-8d89acd6cddf"
          },
          {
            "reference": "Observation/0f2abbe5-3345-e3b7-823a-8f1c312ccd45"
          },
          {
            "reference": "Observation/356e31c0-d25c-90b0-6e7e-371a501c5487"
          },
          {
            "reference": "Observation/24b44a1a-8e63-904e-0b75-33cabceccb6b"
          },
          {
            "reference": "Observation/b3ac8de1-fe7d-96de-9a9d-b53282cb2944"
          },
          {
            "reference": "Observation/e8ca029e-79e3-d321-da20-508a088c121e"
          },
          {
            "reference": "Observation/3e9aa930-cb71-8510-1804-b4b686bcd0c2"
          },
          {
            "reference": "Observation/63b4564e-9a61-7ea5-9b7e-b461c1d2b945"
          },
          {
            "reference": "Observation/04a2c208-a10a-3140-80be-5dfea431f658"
          },
          {
            "reference": "Observation/9c9c405b-f8b6-5f52-d8ff-a82dd2710520"
          },
          {
            "reference": "Observation/5ccc5dc4-b346-ee44-9b33-f1799b2380a9"
          },
          {
            "reference": "Observation/2ea066cd-a9c1-3630-4af8-3c8994f5c7e6"
          },
          {
            "reference": "Observation/e81da695-bd55-e66c-3e12-2e93ad74b565"
          },
          {
            "reference": "Observation/a997d510-8367-3ad5-b933-241daa80d1cb"
          },
          {
            "reference": "Observation/9692f1db-8e70-3c78-fa41-d3008dea68a5"
          },
          {
            "reference": "Observation/93b66f86-4201-eab2-3f88-dd3922934258"
          },
          {
            "reference": "Observation/b159112f-011d-bf96-92d4-297e2a982b4a"
          },
          {
            "reference": "Observation/5268eef3-cd33-66cd-c431-44844144b0d4"
          },
          {
            "reference": "Observation/644e9428-6ffa-cf12-ed87-22edad72f951"
          },
          {
            "reference": "Observation/871dfa80-44de-7e07-dca1-91480e5e9612"
          }
        ]
      },
      "request": {
        "method": "PUT",
        "url": "DiagnosticReport/eabd2fd6-66bd-7953-34e6-bb4b22a7c9e6"
      }
    },
    {
      "fullUrl": "urn:uuid:0e0189fd-d651-3e89-03fc-d94b0d48c462",
      "resource": {
        "resourceType": "Organization",
        "id": "0e0189fd-d651-3e89-03fc-d94b0d48c462",
        "name": "PROVIDENCE SAINT JOHN'S HEALTH CENTER LAB (CLIA 05D0059345)",
        "address": [
          {
            "use": "work",
            "line": [
              "2121 Santa Monica Blvd"
            ],
            "city": "Santa Monica",
            "state": "CA",
            "country": "USA",
            "postalCode": "90404",
            "district": "LOS ANGELES"
          }
        ]
      },
      "request": {
        "method": "PUT",
        "url": "Organization/0e0189fd-d651-3e89-03fc-d94b0d48c462"
      }
    },
    {
      "fullUrl": "urn:uuid:fb09b47e-8d0d-da93-efa8-7a47b16a7160",
      "resource": {
        "resourceType": "Observation",
        "id": "fb09b47e-8d0d-da93-efa8-7a47b16a7160",
        "meta": {
          "profile": [
            "http://hl7.org/fhir/us/core/StructureDefinition/us-core-observationresults"
          ]
        },
        "identifier": [
          {
            "system": "urn:oid:1.2.840.114350.1.13.297.3.7.6.798268.2000",
            "value": "1546468.1"
          }
        ],
        "category": [
          {
            "coding": [
              {
                "system": "http://terminology.hl7.org/CodeSystem/observation-category",
                "code": "laboratory"
              }
            ]
          }
        ],
        "status": "final",
        "code": {
          "coding": [
            {
              "code": "82196-7",
              "display": "Campylobacter, NAAT",
              "system": "http://loinc.org"
            }
          ]
        },
        "effectiveDateTime": "2023-01-31T20:04:16Z",
        "valueString": "Not Detected",
        "extension": [
          {
            "url": "http://hl7.org/fhir/R4/specimen.html",
            "extension": [
              {
                "url": "specimen source",
                "valueString": "Stool"
              },
              {
                "url": "specimen collection time",
                "valueDateTime": "2023-01-31T18:52:00Z"
              }
            ]
          }
        ],
        "subject": {
          "reference": "Patient/34080650-1e86-08fe-c2c9-faa37629edd3"
        },
        "performer": [
          {
            "display": "PROVIDENCE SAINT JOHN'S HEALTH CENTER LAB (CLIA 05D0059345)",
            "reference": "Organization/459d7711-c2ec-cc26-7b4e-03f3964be6ea"
          }
        ]
      },
      "request": {
        "method": "PUT",
        "url": "Observation/fb09b47e-8d0d-da93-efa8-7a47b16a7160"
      }
    },
    {
      "fullUrl": "urn:uuid:459d7711-c2ec-cc26-7b4e-03f3964be6ea",
      "resource": {
        "resourceType": "Organization",
        "id": "459d7711-c2ec-cc26-7b4e-03f3964be6ea",
        "name": "PROVIDENCE SAINT JOHN'S HEALTH CENTER LAB (CLIA 05D0059345)",
        "address": [
          {
            "line": [
              "2121 Santa Monica Blvd"
            ],
            "city": "Santa Monica",
            "state": "CA",
            "postalCode": "90404"
          }
        ],
        "telecom": [
          {
            "system": "phone",
            "value": "+1-310-829-8800"
          }
        ]
      },
      "request": {
        "method": "PUT",
        "url": "Organization/459d7711-c2ec-cc26-7b4e-03f3964be6ea"
      }
    },
    {
      "fullUrl": "urn:uuid:881b25ca-7bed-8901-a853-a385365425ae",
      "resource": {
        "resourceType": "Observation",
        "id": "881b25ca-7bed-8901-a853-a385365425ae",
        "meta": {
          "profile": [
            "http://hl7.org/fhir/us/core/StructureDefinition/us-core-observationresults"
          ]
        },
        "identifier": [
          {
            "system": "urn:oid:1.2.840.114350.1.13.297.3.7.6.798268.2000",
            "value": "1546468.2"
          }
        ],
        "category": [
          {
            "coding": [
              {
                "system": "http://terminology.hl7.org/CodeSystem/observation-category",
                "code": "laboratory"
              }
            ]
          }
        ],
        "status": "final",
        "code": {
          "coding": [
            {
              "code": "82197-5",
              "display": "C. Diff Toxin A/B, NAAT",
              "system": "http://loinc.org"
            }
          ]
        },
        "effectiveDateTime": "2023-01-31T20:04:16Z",
        "valueString": "Not Detected",
        "extension": [
          {
            "url": "http://hl7.org/fhir/R4/specimen.html",
            "extension": [
              {
                "url": "specimen source",
                "valueString": "Stool"
              },
              {
                "url": "specimen collection time",
                "valueDateTime": "2023-01-31T18:52:00Z"
              }
            ]
          }
        ],
        "subject": {
          "reference": "Patient/34080650-1e86-08fe-c2c9-faa37629edd3"
        },
        "performer": [
          {
            "display": "PROVIDENCE SAINT JOHN'S HEALTH CENTER LAB (CLIA 05D0059345)",
            "reference": "Organization/459d7711-c2ec-cc26-7b4e-03f3964be6ea"
          }
        ]
      },
      "request": {
        "method": "PUT",
        "url": "Observation/881b25ca-7bed-8901-a853-a385365425ae"
      }
    },
    {
      "fullUrl": "urn:uuid:7bc2a15f-4d45-94e1-19e6-da5ab3c7626b",
      "resource": {
        "resourceType": "Observation",
        "id": "7bc2a15f-4d45-94e1-19e6-da5ab3c7626b",
        "meta": {
          "profile": [
            "http://hl7.org/fhir/us/core/StructureDefinition/us-core-observationresults"
          ]
        },
        "identifier": [
          {
            "system": "urn:oid:1.2.840.114350.1.13.297.3.7.6.798268.2000",
            "value": "1546468.3"
          }
        ],
        "category": [
          {
            "coding": [
              {
                "system": "http://terminology.hl7.org/CodeSystem/observation-category",
                "code": "laboratory"
              }
            ]
          }
        ],
        "status": "final",
        "code": {
          "coding": [
            {
              "code": "82198-3",
              "display": "Plesiomonas shigelloides, NAAT",
              "system": "http://loinc.org"
            }
          ]
        },
        "effectiveDateTime": "2023-01-31T20:04:16Z",
        "valueString": "Not Detected",
        "extension": [
          {
            "url": "http://hl7.org/fhir/R4/specimen.html",
            "extension": [
              {
                "url": "specimen source",
                "valueString": "Stool"
              },
              {
                "url": "specimen collection time",
                "valueDateTime": "2023-01-31T18:52:00Z"
              }
            ]
          }
        ],
        "subject": {
          "reference": "Patient/34080650-1e86-08fe-c2c9-faa37629edd3"
        },
        "performer": [
          {
            "display": "PROVIDENCE SAINT JOHN'S HEALTH CENTER LAB (CLIA 05D0059345)",
            "reference": "Organization/459d7711-c2ec-cc26-7b4e-03f3964be6ea"
          }
        ]
      },
      "request": {
        "method": "PUT",
        "url": "Observation/7bc2a15f-4d45-94e1-19e6-da5ab3c7626b"
      }
    },
    {
      "fullUrl": "urn:uuid:087b3b57-c13b-9381-2788-8d89acd6cddf",
      "resource": {
        "resourceType": "Observation",
        "id": "087b3b57-c13b-9381-2788-8d89acd6cddf",
        "meta": {
          "profile": [
            "http://hl7.org/fhir/us/core/StructureDefinition/us-core-observationresults"
          ]
        },
        "identifier": [
          {
            "system": "urn:oid:1.2.840.114350.1.13.297.3.7.6.798268.2000",
            "value": "1546468.4"
          }
        ],
        "category": [
          {
            "coding": [
              {
                "system": "http://terminology.hl7.org/CodeSystem/observation-category",
                "code": "laboratory"
              }
            ]
          }
        ],
        "status": "final",
        "code": {
          "coding": [
            {
              "code": "82199-1",
              "display": "Salmonella, NAAT",
              "system": "http://loinc.org"
            }
          ]
        },
        "effectiveDateTime": "2023-01-31T20:04:16Z",
        "valueString": "Not Detected",
        "extension": [
          {
            "url": "http://hl7.org/fhir/R4/specimen.html",
            "extension": [
              {
                "url": "specimen source",
                "valueString": "Stool"
              },
              {
                "url": "specimen collection time",
                "valueDateTime": "2023-01-31T18:52:00Z"
              }
            ]
          }
        ],
        "subject": {
          "reference": "Patient/34080650-1e86-08fe-c2c9-faa37629edd3"
        },
        "performer": [
          {
            "display": "PROVIDENCE SAINT JOHN'S HEALTH CENTER LAB (CLIA 05D0059345)",
            "reference": "Organization/459d7711-c2ec-cc26-7b4e-03f3964be6ea"
          }
        ]
      },
      "request": {
        "method": "PUT",
        "url": "Observation/087b3b57-c13b-9381-2788-8d89acd6cddf"
      }
    },
    {
      "fullUrl": "urn:uuid:0f2abbe5-3345-e3b7-823a-8f1c312ccd45",
      "resource": {
        "resourceType": "Observation",
        "id": "0f2abbe5-3345-e3b7-823a-8f1c312ccd45",
        "meta": {
          "profile": [
            "http://hl7.org/fhir/us/core/StructureDefinition/us-core-observationresults"
          ]
        },
        "identifier": [
          {
            "system": "urn:oid:1.2.840.114350.1.13.297.3.7.6.798268.2000",
            "value": "1546468.5"
          }
        ],
        "category": [
          {
            "coding": [
              {
                "system": "http://terminology.hl7.org/CodeSystem/observation-category",
                "code": "laboratory"
              }
            ]
          }
        ],
        "status": "final",
        "code": {
          "coding": [
            {
              "code": "82200-7",
              "display": "Vibrio, NAAT",
              "system": "http://loinc.org"
            }
          ]
        },
        "effectiveDateTime": "2023-01-31T20:04:16Z",
        "valueString": "Not Detected",
        "extension": [
          {
            "url": "http://hl7.org/fhir/R4/specimen.html",
            "extension": [
              {
                "url": "specimen source",
                "valueString": "Stool"
              },
              {
                "url": "specimen collection time",
                "valueDateTime": "2023-01-31T18:52:00Z"
              }
            ]
          }
        ],
        "subject": {
          "reference": "Patient/34080650-1e86-08fe-c2c9-faa37629edd3"
        },
        "performer": [
          {
            "display": "PROVIDENCE SAINT JOHN'S HEALTH CENTER LAB (CLIA 05D0059345)",
            "reference": "Organization/459d7711-c2ec-cc26-7b4e-03f3964be6ea"
          }
        ]
      },
      "request": {
        "method": "PUT",
        "url": "Observation/0f2abbe5-3345-e3b7-823a-8f1c312ccd45"
      }
    },
    {
      "fullUrl": "urn:uuid:356e31c0-d25c-90b0-6e7e-371a501c5487",
      "resource": {
        "resourceType": "Observation",
        "id": "356e31c0-d25c-90b0-6e7e-371a501c5487",
        "meta": {
          "profile": [
            "http://hl7.org/fhir/us/core/StructureDefinition/us-core-observationresults"
          ]
        },
        "identifier": [
          {
            "system": "urn:oid:1.2.840.114350.1.13.297.3.7.6.798268.2000",
            "value": "1546468.6"
          }
        ],
        "category": [
          {
            "coding": [
              {
                "system": "http://terminology.hl7.org/CodeSystem/observation-category",
                "code": "laboratory"
              }
            ]
          }
        ],
        "status": "final",
        "code": {
          "coding": [
            {
              "code": "82201-5",
              "display": "Vibrio cholerae, NAAT",
              "system": "http://loinc.org"
            }
          ]
        },
        "effectiveDateTime": "2023-01-31T20:04:16Z",
        "valueString": "Not Detected",
        "extension": [
          {
            "url": "http://hl7.org/fhir/R4/specimen.html",
            "extension": [
              {
                "url": "specimen source",
                "valueString": "Stool"
              },
              {
                "url": "specimen collection time",
                "valueDateTime": "2023-01-31T18:52:00Z"
              }
            ]
          }
        ],
        "subject": {
          "reference": "Patient/34080650-1e86-08fe-c2c9-faa37629edd3"
        },
        "performer": [
          {
            "display": "PROVIDENCE SAINT JOHN'S HEALTH CENTER LAB (CLIA 05D0059345)",
            "reference": "Organization/459d7711-c2ec-cc26-7b4e-03f3964be6ea"
          }
        ]
      },
      "request": {
        "method": "PUT",
        "url": "Observation/356e31c0-d25c-90b0-6e7e-371a501c5487"
      }
    },
    {
      "fullUrl": "urn:uuid:24b44a1a-8e63-904e-0b75-33cabceccb6b",
      "resource": {
        "resourceType": "Observation",
        "id": "24b44a1a-8e63-904e-0b75-33cabceccb6b",
        "meta": {
          "profile": [
            "http://hl7.org/fhir/us/core/StructureDefinition/us-core-observationresults"
          ]
        },
        "identifier": [
          {
            "system": "urn:oid:1.2.840.114350.1.13.297.3.7.6.798268.2000",
            "value": "1546468.7"
          }
        ],
        "category": [
          {
            "coding": [
              {
                "system": "http://terminology.hl7.org/CodeSystem/observation-category",
                "code": "laboratory"
              }
            ]
          }
        ],
        "status": "final",
        "code": {
          "coding": [
            {
              "code": "82202-3",
              "display": "Yersinia enterocolitica, NAAT",
              "system": "http://loinc.org"
            }
          ]
        },
        "effectiveDateTime": "2023-01-31T20:04:16Z",
        "valueString": "Not Detected",
        "extension": [
          {
            "url": "http://hl7.org/fhir/R4/specimen.html",
            "extension": [
              {
                "url": "specimen source",
                "valueString": "Stool"
              },
              {
                "url": "specimen collection time",
                "valueDateTime": "2023-01-31T18:52:00Z"
              }
            ]
          }
        ],
        "subject": {
          "reference": "Patient/34080650-1e86-08fe-c2c9-faa37629edd3"
        },
        "performer": [
          {
            "display": "PROVIDENCE SAINT JOHN'S HEALTH CENTER LAB (CLIA 05D0059345)",
            "reference": "Organization/459d7711-c2ec-cc26-7b4e-03f3964be6ea"
          }
        ]
      },
      "request": {
        "method": "PUT",
        "url": "Observation/24b44a1a-8e63-904e-0b75-33cabceccb6b"
      }
    },
    {
      "fullUrl": "urn:uuid:b3ac8de1-fe7d-96de-9a9d-b53282cb2944",
      "resource": {
        "resourceType": "Observation",
        "id": "b3ac8de1-fe7d-96de-9a9d-b53282cb2944",
        "meta": {
          "profile": [
            "http://hl7.org/fhir/us/core/StructureDefinition/us-core-observationresults"
          ]
        },
        "identifier": [
          {
            "system": "urn:oid:1.2.840.114350.1.13.297.3.7.6.798268.2000",
            "value": "1546468.8"
          }
        ],
        "category": [
          {
            "coding": [
              {
                "system": "http://terminology.hl7.org/CodeSystem/observation-category",
                "code": "laboratory"
              }
            ]
          }
        ],
        "status": "final",
        "code": {
          "coding": [
            {
              "code": "82204-9",
              "display": "E. Coli O157, NAAT",
              "system": "http://loinc.org"
            }
          ]
        },
        "effectiveDateTime": "2023-01-31T20:04:16Z",
        "valueString": "Not Detected",
        "extension": [
          {
            "url": "http://hl7.org/fhir/R4/specimen.html",
            "extension": [
              {
                "url": "specimen source",
                "valueString": "Stool"
              },
              {
                "url": "specimen collection time",
                "valueDateTime": "2023-01-31T18:52:00Z"
              }
            ]
          }
        ],
        "subject": {
          "reference": "Patient/34080650-1e86-08fe-c2c9-faa37629edd3"
        },
        "performer": [
          {
            "display": "PROVIDENCE SAINT JOHN'S HEALTH CENTER LAB (CLIA 05D0059345)",
            "reference": "Organization/459d7711-c2ec-cc26-7b4e-03f3964be6ea"
          }
        ]
      },
      "request": {
        "method": "PUT",
        "url": "Observation/b3ac8de1-fe7d-96de-9a9d-b53282cb2944"
      }
    },
    {
      "fullUrl": "urn:uuid:e8ca029e-79e3-d321-da20-508a088c121e",
      "resource": {
        "resourceType": "Observation",
        "id": "e8ca029e-79e3-d321-da20-508a088c121e",
        "meta": {
          "profile": [
            "http://hl7.org/fhir/us/core/StructureDefinition/us-core-observationresults"
          ]
        },
        "identifier": [
          {
            "system": "urn:oid:1.2.840.114350.1.13.297.3.7.6.798268.2000",
            "value": "1546468.9"
          }
        ],
        "category": [
          {
            "coding": [
              {
                "system": "http://terminology.hl7.org/CodeSystem/observation-category",
                "code": "laboratory"
              }
            ]
          }
        ],
        "status": "final",
        "code": {
          "coding": [
            {
              "code": "80349-4",
              "display": "E. Coli (EAEC), NAAT",
              "system": "http://loinc.org"
            }
          ]
        },
        "effectiveDateTime": "2023-01-31T20:04:16Z",
        "valueString": "Not Detected",
        "extension": [
          {
            "url": "http://hl7.org/fhir/R4/specimen.html",
            "extension": [
              {
                "url": "specimen source",
                "valueString": "Stool"
              },
              {
                "url": "specimen collection time",
                "valueDateTime": "2023-01-31T18:52:00Z"
              }
            ]
          }
        ],
        "subject": {
          "reference": "Patient/34080650-1e86-08fe-c2c9-faa37629edd3"
        },
        "performer": [
          {
            "display": "PROVIDENCE SAINT JOHN'S HEALTH CENTER LAB (CLIA 05D0059345)",
            "reference": "Organization/459d7711-c2ec-cc26-7b4e-03f3964be6ea"
          }
        ]
      },
      "request": {
        "method": "PUT",
        "url": "Observation/e8ca029e-79e3-d321-da20-508a088c121e"
      }
    },
    {
      "fullUrl": "urn:uuid:3e9aa930-cb71-8510-1804-b4b686bcd0c2",
      "resource": {
        "resourceType": "Observation",
        "id": "3e9aa930-cb71-8510-1804-b4b686bcd0c2",
        "meta": {
          "profile": [
            "http://hl7.org/fhir/us/core/StructureDefinition/us-core-observationresults"
          ]
        },
        "identifier": [
          {
            "system": "urn:oid:1.2.840.114350.1.13.297.3.7.6.798268.2000",
            "value": "1546468.10"
          }
        ],
        "category": [
          {
            "coding": [
              {
                "system": "http://terminology.hl7.org/CodeSystem/observation-category",
                "code": "laboratory"
              }
            ]
          }
        ],
        "status": "final",
        "code": {
          "coding": [
            {
              "code": "80348-6",
              "display": "E. Coli (EPEC), NAAT",
              "system": "http://loinc.org"
            }
          ]
        },
        "effectiveDateTime": "2023-01-31T20:04:16Z",
        "valueString": "Not Detected",
        "extension": [
          {
            "url": "http://hl7.org/fhir/R4/specimen.html",
            "extension": [
              {
                "url": "specimen source",
                "valueString": "Stool"
              },
              {
                "url": "specimen collection time",
                "valueDateTime": "2023-01-31T18:52:00Z"
              }
            ]
          }
        ],
        "subject": {
          "reference": "Patient/34080650-1e86-08fe-c2c9-faa37629edd3"
        },
        "performer": [
          {
            "display": "PROVIDENCE SAINT JOHN'S HEALTH CENTER LAB (CLIA 05D0059345)",
            "reference": "Organization/459d7711-c2ec-cc26-7b4e-03f3964be6ea"
          }
        ]
      },
      "request": {
        "method": "PUT",
        "url": "Observation/3e9aa930-cb71-8510-1804-b4b686bcd0c2"
      }
    },
    {
      "fullUrl": "urn:uuid:63b4564e-9a61-7ea5-9b7e-b461c1d2b945",
      "resource": {
        "resourceType": "Observation",
        "id": "63b4564e-9a61-7ea5-9b7e-b461c1d2b945",
        "meta": {
          "profile": [
            "http://hl7.org/fhir/us/core/StructureDefinition/us-core-observationresults"
          ]
        },
        "identifier": [
          {
            "system": "urn:oid:1.2.840.114350.1.13.297.3.7.6.798268.2000",
            "value": "1546468.11"
          }
        ],
        "category": [
          {
            "coding": [
              {
                "system": "http://terminology.hl7.org/CodeSystem/observation-category",
                "code": "laboratory"
              }
            ]
          }
        ],
        "status": "final",
        "code": {
          "coding": [
            {
              "code": "80351-0",
              "display": "E. Coli (ETEC), NAAT",
              "system": "http://loinc.org"
            }
          ]
        },
        "effectiveDateTime": "2023-01-31T20:04:16Z",
        "valueString": "Not Detected",
        "extension": [
          {
            "url": "http://hl7.org/fhir/R4/specimen.html",
            "extension": [
              {
                "url": "specimen source",
                "valueString": "Stool"
              },
              {
                "url": "specimen collection time",
                "valueDateTime": "2023-01-31T18:52:00Z"
              }
            ]
          }
        ],
        "subject": {
          "reference": "Patient/34080650-1e86-08fe-c2c9-faa37629edd3"
        },
        "performer": [
          {
            "display": "PROVIDENCE SAINT JOHN'S HEALTH CENTER LAB (CLIA 05D0059345)",
            "reference": "Organization/459d7711-c2ec-cc26-7b4e-03f3964be6ea"
          }
        ]
      },
      "request": {
        "method": "PUT",
        "url": "Observation/63b4564e-9a61-7ea5-9b7e-b461c1d2b945"
      }
    },
    {
      "fullUrl": "urn:uuid:04a2c208-a10a-3140-80be-5dfea431f658",
      "resource": {
        "resourceType": "Observation",
        "id": "04a2c208-a10a-3140-80be-5dfea431f658",
        "meta": {
          "profile": [
            "http://hl7.org/fhir/us/core/StructureDefinition/us-core-observationresults"
          ]
        },
        "identifier": [
          {
            "system": "urn:oid:1.2.840.114350.1.13.297.3.7.6.798268.2000",
            "value": "1546468.12"
          }
        ],
        "category": [
          {
            "coding": [
              {
                "system": "http://terminology.hl7.org/CodeSystem/observation-category",
                "code": "laboratory"
              }
            ]
          }
        ],
        "status": "final",
        "code": {
          "coding": [
            {
              "code": "82203-1",
              "display": "Shiga-Like Toxin E. Coli (STEC), NAAT",
              "system": "http://loinc.org"
            }
          ]
        },
        "effectiveDateTime": "2023-01-31T20:04:16Z",
        "valueString": "Not Detected",
        "extension": [
          {
            "url": "http://hl7.org/fhir/R4/specimen.html",
            "extension": [
              {
                "url": "specimen source",
                "valueString": "Stool"
              },
              {
                "url": "specimen collection time",
                "valueDateTime": "2023-01-31T18:52:00Z"
              }
            ]
          }
        ],
        "subject": {
          "reference": "Patient/34080650-1e86-08fe-c2c9-faa37629edd3"
        },
        "performer": [
          {
            "display": "PROVIDENCE SAINT JOHN'S HEALTH CENTER LAB (CLIA 05D0059345)",
            "reference": "Organization/459d7711-c2ec-cc26-7b4e-03f3964be6ea"
          }
        ]
      },
      "request": {
        "method": "PUT",
        "url": "Observation/04a2c208-a10a-3140-80be-5dfea431f658"
      }
    },
    {
      "fullUrl": "urn:uuid:9c9c405b-f8b6-5f52-d8ff-a82dd2710520",
      "resource": {
        "resourceType": "Observation",
        "id": "9c9c405b-f8b6-5f52-d8ff-a82dd2710520",
        "meta": {
          "profile": [
            "http://hl7.org/fhir/us/core/StructureDefinition/us-core-observationresults"
          ]
        },
        "identifier": [
          {
            "system": "urn:oid:1.2.840.114350.1.13.297.3.7.6.798268.2000",
            "value": "1546468.13"
          }
        ],
        "category": [
          {
            "coding": [
              {
                "system": "http://terminology.hl7.org/CodeSystem/observation-category",
                "code": "laboratory"
              }
            ]
          }
        ],
        "status": "final",
        "code": {
          "coding": [
            {
              "code": "80350-2",
              "display": "Shigella/EIEC, NAAT",
              "system": "http://loinc.org"
            }
          ]
        },
        "effectiveDateTime": "2023-01-31T20:04:16Z",
        "valueString": "Not Detected",
        "extension": [
          {
            "url": "http://hl7.org/fhir/R4/specimen.html",
            "extension": [
              {
                "url": "specimen source",
                "valueString": "Stool"
              },
              {
                "url": "specimen collection time",
                "valueDateTime": "2023-01-31T18:52:00Z"
              }
            ]
          }
        ],
        "subject": {
          "reference": "Patient/34080650-1e86-08fe-c2c9-faa37629edd3"
        },
        "performer": [
          {
            "display": "PROVIDENCE SAINT JOHN'S HEALTH CENTER LAB (CLIA 05D0059345)",
            "reference": "Organization/459d7711-c2ec-cc26-7b4e-03f3964be6ea"
          }
        ]
      },
      "request": {
        "method": "PUT",
        "url": "Observation/9c9c405b-f8b6-5f52-d8ff-a82dd2710520"
      }
    },
    {
      "fullUrl": "urn:uuid:5ccc5dc4-b346-ee44-9b33-f1799b2380a9",
      "resource": {
        "resourceType": "Observation",
        "id": "5ccc5dc4-b346-ee44-9b33-f1799b2380a9",
        "meta": {
          "profile": [
            "http://hl7.org/fhir/us/core/StructureDefinition/us-core-observationresults"
          ]
        },
        "identifier": [
          {
            "system": "urn:oid:1.2.840.114350.1.13.297.3.7.6.798268.2000",
            "value": "1546468.14"
          }
        ],
        "category": [
          {
            "coding": [
              {
                "system": "http://terminology.hl7.org/CodeSystem/observation-category",
                "code": "laboratory"
              }
            ]
          }
        ],
        "status": "final",
        "code": {
          "coding": [
            {
              "code": "41434-2",
              "display": "Cryptosporidium, NAAT",
              "system": "http://loinc.org"
            }
          ]
        },
        "effectiveDateTime": "2023-01-31T20:04:16Z",
        "valueString": "Not Detected",
        "extension": [
          {
            "url": "http://hl7.org/fhir/R4/specimen.html",
            "extension": [
              {
                "url": "specimen source",
                "valueString": "Stool"
              },
              {
                "url": "specimen collection time",
                "valueDateTime": "2023-01-31T18:52:00Z"
              }
            ]
          }
        ],
        "subject": {
          "reference": "Patient/34080650-1e86-08fe-c2c9-faa37629edd3"
        },
        "performer": [
          {
            "display": "PROVIDENCE SAINT JOHN'S HEALTH CENTER LAB (CLIA 05D0059345)",
            "reference": "Organization/459d7711-c2ec-cc26-7b4e-03f3964be6ea"
          }
        ]
      },
      "request": {
        "method": "PUT",
        "url": "Observation/5ccc5dc4-b346-ee44-9b33-f1799b2380a9"
      }
    },
    {
      "fullUrl": "urn:uuid:2ea066cd-a9c1-3630-4af8-3c8994f5c7e6",
      "resource": {
        "resourceType": "Observation",
        "id": "2ea066cd-a9c1-3630-4af8-3c8994f5c7e6",
        "meta": {
          "profile": [
            "http://hl7.org/fhir/us/core/StructureDefinition/us-core-observationresults"
          ]
        },
        "identifier": [
          {
            "system": "urn:oid:1.2.840.114350.1.13.297.3.7.6.798268.2000",
            "value": "1546468.15"
          }
        ],
        "category": [
          {
            "coding": [
              {
                "system": "http://terminology.hl7.org/CodeSystem/observation-category",
                "code": "laboratory"
              }
            ]
          }
        ],
        "status": "final",
        "code": {
          "coding": [
            {
              "code": "82206-4",
              "display": "Cyclospora cayetanensis, NAAT",
              "system": "http://loinc.org"
            }
          ]
        },
        "effectiveDateTime": "2023-01-31T20:04:16Z",
        "valueCodeableConcept": {
          "coding": [
            {
              "code": "260373001",
              "display": "DETECTED",
              "system": "http://snomed.info/sct"
            }
          ]
        },
        "interpretation": [
          {
            "coding": [
              {
                "code": "AA",
                "display": "Abnormal Alert",
                "system": "http://terminology.hl7.org/CodeSystem/v3-ObservationInterpretation"
              }
            ]
          }
        ],
        "extension": [
          {
            "url": "http://hl7.org/fhir/R4/specimen.html",
            "extension": [
              {
                "url": "specimen source",
                "valueString": "Stool"
              },
              {
                "url": "specimen collection time",
                "valueDateTime": "2023-01-31T18:52:00Z"
              }
            ]
          }
        ],
        "subject": {
          "reference": "Patient/34080650-1e86-08fe-c2c9-faa37629edd3"
        },
        "performer": [
          {
            "display": "PROVIDENCE SAINT JOHN'S HEALTH CENTER LAB (CLIA 05D0059345)",
            "reference": "Organization/459d7711-c2ec-cc26-7b4e-03f3964be6ea"
          }
        ]
      },
      "request": {
        "method": "PUT",
        "url": "Observation/2ea066cd-a9c1-3630-4af8-3c8994f5c7e6"
      }
    },
    {
      "fullUrl": "urn:uuid:e81da695-bd55-e66c-3e12-2e93ad74b565",
      "resource": {
        "resourceType": "Observation",
        "id": "e81da695-bd55-e66c-3e12-2e93ad74b565",
        "meta": {
          "profile": [
            "http://hl7.org/fhir/us/core/StructureDefinition/us-core-observationresults"
          ]
        },
        "identifier": [
          {
            "system": "urn:oid:1.2.840.114350.1.13.297.3.7.6.798268.2000",
            "value": "1546468.16"
          }
        ],
        "category": [
          {
            "coding": [
              {
                "system": "http://terminology.hl7.org/CodeSystem/observation-category",
                "code": "laboratory"
              }
            ]
          }
        ],
        "status": "final",
        "code": {
          "coding": [
            {
              "code": "6396-6",
              "display": "E. histolytica, NAAT",
              "system": "http://loinc.org"
            }
          ]
        },
        "effectiveDateTime": "2023-01-31T20:04:16Z",
        "valueString": "Not Detected",
        "extension": [
          {
            "url": "http://hl7.org/fhir/R4/specimen.html",
            "extension": [
              {
                "url": "specimen source",
                "valueString": "Stool"
              },
              {
                "url": "specimen collection time",
                "valueDateTime": "2023-01-31T18:52:00Z"
              }
            ]
          }
        ],
        "subject": {
          "reference": "Patient/34080650-1e86-08fe-c2c9-faa37629edd3"
        },
        "performer": [
          {
            "display": "PROVIDENCE SAINT JOHN'S HEALTH CENTER LAB (CLIA 05D0059345)",
            "reference": "Organization/459d7711-c2ec-cc26-7b4e-03f3964be6ea"
          }
        ]
      },
      "request": {
        "method": "PUT",
        "url": "Observation/e81da695-bd55-e66c-3e12-2e93ad74b565"
      }
    },
    {
      "fullUrl": "urn:uuid:a997d510-8367-3ad5-b933-241daa80d1cb",
      "resource": {
        "resourceType": "Observation",
        "id": "a997d510-8367-3ad5-b933-241daa80d1cb",
        "meta": {
          "profile": [
            "http://hl7.org/fhir/us/core/StructureDefinition/us-core-observationresults"
          ]
        },
        "identifier": [
          {
            "system": "urn:oid:1.2.840.114350.1.13.297.3.7.6.798268.2000",
            "value": "1546468.17"
          }
        ],
        "category": [
          {
            "coding": [
              {
                "system": "http://terminology.hl7.org/CodeSystem/observation-category",
                "code": "laboratory"
              }
            ]
          }
        ],
        "status": "final",
        "code": {
          "coding": [
            {
              "code": "82208-0",
              "display": "Giardia lamblia, NAAT",
              "system": "http://loinc.org"
            }
          ]
        },
        "effectiveDateTime": "2023-01-31T20:04:16Z",
        "valueString": "Not Detected",
        "extension": [
          {
            "url": "http://hl7.org/fhir/R4/specimen.html",
            "extension": [
              {
                "url": "specimen source",
                "valueString": "Stool"
              },
              {
                "url": "specimen collection time",
                "valueDateTime": "2023-01-31T18:52:00Z"
              }
            ]
          }
        ],
        "subject": {
          "reference": "Patient/34080650-1e86-08fe-c2c9-faa37629edd3"
        },
        "performer": [
          {
            "display": "PROVIDENCE SAINT JOHN'S HEALTH CENTER LAB (CLIA 05D0059345)",
            "reference": "Organization/459d7711-c2ec-cc26-7b4e-03f3964be6ea"
          }
        ]
      },
      "request": {
        "method": "PUT",
        "url": "Observation/a997d510-8367-3ad5-b933-241daa80d1cb"
      }
    },
    {
      "fullUrl": "urn:uuid:9692f1db-8e70-3c78-fa41-d3008dea68a5",
      "resource": {
        "resourceType": "Observation",
        "id": "9692f1db-8e70-3c78-fa41-d3008dea68a5",
        "meta": {
          "profile": [
            "http://hl7.org/fhir/us/core/StructureDefinition/us-core-observationresults"
          ]
        },
        "identifier": [
          {
            "system": "urn:oid:1.2.840.114350.1.13.297.3.7.6.798268.2000",
            "value": "1546468.18"
          }
        ],
        "category": [
          {
            "coding": [
              {
                "system": "http://terminology.hl7.org/CodeSystem/observation-category",
                "code": "laboratory"
              }
            ]
          }
        ],
        "status": "final",
        "code": {
          "coding": [
            {
              "code": "82209-8",
              "display": "Adenovirus F 40/41, NAAT",
              "system": "http://loinc.org"
            }
          ]
        },
        "effectiveDateTime": "2023-01-31T20:04:16Z",
        "valueString": "Not Detected",
        "extension": [
          {
            "url": "http://hl7.org/fhir/R4/specimen.html",
            "extension": [
              {
                "url": "specimen source",
                "valueString": "Stool"
              },
              {
                "url": "specimen collection time",
                "valueDateTime": "2023-01-31T18:52:00Z"
              }
            ]
          }
        ],
        "subject": {
          "reference": "Patient/34080650-1e86-08fe-c2c9-faa37629edd3"
        },
        "performer": [
          {
            "display": "PROVIDENCE SAINT JOHN'S HEALTH CENTER LAB (CLIA 05D0059345)",
            "reference": "Organization/459d7711-c2ec-cc26-7b4e-03f3964be6ea"
          }
        ]
      },
      "request": {
        "method": "PUT",
        "url": "Observation/9692f1db-8e70-3c78-fa41-d3008dea68a5"
      }
    },
    {
      "fullUrl": "urn:uuid:93b66f86-4201-eab2-3f88-dd3922934258",
      "resource": {
        "resourceType": "Observation",
        "id": "93b66f86-4201-eab2-3f88-dd3922934258",
        "meta": {
          "profile": [
            "http://hl7.org/fhir/us/core/StructureDefinition/us-core-observationresults"
          ]
        },
        "identifier": [
          {
            "system": "urn:oid:1.2.840.114350.1.13.297.3.7.6.798268.2000",
            "value": "1546468.19"
          }
        ],
        "category": [
          {
            "coding": [
              {
                "system": "http://terminology.hl7.org/CodeSystem/observation-category",
                "code": "laboratory"
              }
            ]
          }
        ],
        "status": "final",
        "code": {
          "coding": [
            {
              "code": "82210-6",
              "display": "Astrovirus, NAAT",
              "system": "http://loinc.org"
            }
          ]
        },
        "effectiveDateTime": "2023-01-31T20:04:16Z",
        "valueString": "Not Detected",
        "extension": [
          {
            "url": "http://hl7.org/fhir/R4/specimen.html",
            "extension": [
              {
                "url": "specimen source",
                "valueString": "Stool"
              },
              {
                "url": "specimen collection time",
                "valueDateTime": "2023-01-31T18:52:00Z"
              }
            ]
          }
        ],
        "subject": {
          "reference": "Patient/34080650-1e86-08fe-c2c9-faa37629edd3"
        },
        "performer": [
          {
            "display": "PROVIDENCE SAINT JOHN'S HEALTH CENTER LAB (CLIA 05D0059345)",
            "reference": "Organization/459d7711-c2ec-cc26-7b4e-03f3964be6ea"
          }
        ]
      },
      "request": {
        "method": "PUT",
        "url": "Observation/93b66f86-4201-eab2-3f88-dd3922934258"
      }
    },
    {
      "fullUrl": "urn:uuid:b159112f-011d-bf96-92d4-297e2a982b4a",
      "resource": {
        "resourceType": "Observation",
        "id": "b159112f-011d-bf96-92d4-297e2a982b4a",
        "meta": {
          "profile": [
            "http://hl7.org/fhir/us/core/StructureDefinition/us-core-observationresults"
          ]
        },
        "identifier": [
          {
            "system": "urn:oid:1.2.840.114350.1.13.297.3.7.6.798268.2000",
            "value": "1546468.20"
          }
        ],
        "category": [
          {
            "coding": [
              {
                "system": "http://terminology.hl7.org/CodeSystem/observation-category",
                "code": "laboratory"
              }
            ]
          }
        ],
        "status": "final",
        "code": {
          "coding": [
            {
              "code": "82211-4",
              "display": "Norovirus, NAAT",
              "system": "http://loinc.org"
            }
          ]
        },
        "effectiveDateTime": "2023-01-31T20:04:16Z",
        "valueString": "Not Detected",
        "extension": [
          {
            "url": "http://hl7.org/fhir/R4/specimen.html",
            "extension": [
              {
                "url": "specimen source",
                "valueString": "Stool"
              },
              {
                "url": "specimen collection time",
                "valueDateTime": "2023-01-31T18:52:00Z"
              }
            ]
          }
        ],
        "subject": {
          "reference": "Patient/34080650-1e86-08fe-c2c9-faa37629edd3"
        },
        "performer": [
          {
            "display": "PROVIDENCE SAINT JOHN'S HEALTH CENTER LAB (CLIA 05D0059345)",
            "reference": "Organization/459d7711-c2ec-cc26-7b4e-03f3964be6ea"
          }
        ]
      },
      "request": {
        "method": "PUT",
        "url": "Observation/b159112f-011d-bf96-92d4-297e2a982b4a"
      }
    },
    {
      "fullUrl": "urn:uuid:5268eef3-cd33-66cd-c431-44844144b0d4",
      "resource": {
        "resourceType": "Observation",
        "id": "5268eef3-cd33-66cd-c431-44844144b0d4",
        "meta": {
          "profile": [
            "http://hl7.org/fhir/us/core/StructureDefinition/us-core-observationresults"
          ]
        },
        "identifier": [
          {
            "system": "urn:oid:1.2.840.114350.1.13.297.3.7.6.798268.2000",
            "value": "1546468.21"
          }
        ],
        "category": [
          {
            "coding": [
              {
                "system": "http://terminology.hl7.org/CodeSystem/observation-category",
                "code": "laboratory"
              }
            ]
          }
        ],
        "status": "final",
        "code": {
          "coding": [
            {
              "code": "82212-2",
              "display": "Rotavirus A, NAAT",
              "system": "http://loinc.org"
            }
          ]
        },
        "effectiveDateTime": "2023-01-31T20:04:16Z",
        "valueString": "Not Detected",
        "extension": [
          {
            "url": "http://hl7.org/fhir/R4/specimen.html",
            "extension": [
              {
                "url": "specimen source",
                "valueString": "Stool"
              },
              {
                "url": "specimen collection time",
                "valueDateTime": "2023-01-31T18:52:00Z"
              }
            ]
          }
        ],
        "subject": {
          "reference": "Patient/34080650-1e86-08fe-c2c9-faa37629edd3"
        },
        "performer": [
          {
            "display": "PROVIDENCE SAINT JOHN'S HEALTH CENTER LAB (CLIA 05D0059345)",
            "reference": "Organization/459d7711-c2ec-cc26-7b4e-03f3964be6ea"
          }
        ]
      },
      "request": {
        "method": "PUT",
        "url": "Observation/5268eef3-cd33-66cd-c431-44844144b0d4"
      }
    },
    {
      "fullUrl": "urn:uuid:644e9428-6ffa-cf12-ed87-22edad72f951",
      "resource": {
        "resourceType": "Observation",
        "id": "644e9428-6ffa-cf12-ed87-22edad72f951",
        "meta": {
          "profile": [
            "http://hl7.org/fhir/us/core/StructureDefinition/us-core-observationresults"
          ]
        },
        "identifier": [
          {
            "system": "urn:oid:1.2.840.114350.1.13.297.3.7.6.798268.2000",
            "value": "1546468.22"
          }
        ],
        "category": [
          {
            "coding": [
              {
                "system": "http://terminology.hl7.org/CodeSystem/observation-category",
                "code": "laboratory"
              }
            ]
          }
        ],
        "status": "final",
        "code": {
          "coding": [
            {
              "code": "82195-9",
              "display": "Sapovirus, NAAT",
              "system": "http://loinc.org"
            }
          ]
        },
        "effectiveDateTime": "2023-01-31T20:04:16Z",
        "valueString": "Not Detected",
        "extension": [
          {
            "url": "http://hl7.org/fhir/R4/specimen.html",
            "extension": [
              {
                "url": "specimen source",
                "valueString": "Stool"
              },
              {
                "url": "specimen collection time",
                "valueDateTime": "2023-01-31T18:52:00Z"
              }
            ]
          }
        ],
        "subject": {
          "reference": "Patient/34080650-1e86-08fe-c2c9-faa37629edd3"
        },
        "performer": [
          {
            "display": "PROVIDENCE SAINT JOHN'S HEALTH CENTER LAB (CLIA 05D0059345)",
            "reference": "Organization/459d7711-c2ec-cc26-7b4e-03f3964be6ea"
          }
        ]
      },
      "request": {
        "method": "PUT",
        "url": "Observation/644e9428-6ffa-cf12-ed87-22edad72f951"
      }
    },
    {
      "fullUrl": "urn:uuid:871dfa80-44de-7e07-dca1-91480e5e9612",
      "resource": {
        "resourceType": "Observation",
        "id": "871dfa80-44de-7e07-dca1-91480e5e9612",
        "meta": {
          "profile": [
            "http://hl7.org/fhir/us/core/StructureDefinition/us-core-observationresults"
          ]
        },
        "identifier": [
          {
            "system": "urn:oid:1.2.840.114350.1.13.297.3.7.2.798268",
            "value": "1546468"
          }
        ],
        "category": [
          {
            "coding": [
              {
                "system": "http://terminology.hl7.org/CodeSystem/observation-category",
                "code": "laboratory"
              }
            ]
          }
        ],
        "status": "final",
        "code": {
          "coding": [
            {
              "code": "56850-1",
              "display": "Lab Interpretation",
              "system": "http://loinc.org"
            }
          ]
        },
        "effectiveDateTime": "2023-01-31T20:04:16Z",
        "valueString": "Abnormal",
        "extension": [
          {
            "url": "http://hl7.org/fhir/R4/specimen.html",
            "extension": [
              {
                "url": "specimen source",
                "valueString": "Stool"
              },
              {
                "url": "specimen collection time",
                "valueDateTime": "2023-01-31T18:52:00Z"
              }
            ]
          }
        ],
        "subject": {
          "reference": "Patient/34080650-1e86-08fe-c2c9-faa37629edd3"
        }
      },
      "request": {
        "method": "PUT",
        "url": "Observation/871dfa80-44de-7e07-dca1-91480e5e9612"
      }
    },
    {
      "fullUrl": "urn:uuid:8675309",
      "resource": {
        "resourceType": "Person",
        "id": "8675309",
        "identifier": [
          {
            "value": "external id - 555"
          }
        ],
        "link": [
          {
            "target": {
              "reference": "Patient/34080650-1e86-08fe-c2c9-faa37629edd3",
              "display": "Jessies Girl"
            }
          }
        ]
      },
      "request": {
        "method": "PUT",
        "url": "Person/8675309"
      }
    }
  ]
}