{
  "resourceType": "Bundle",
  "type": "batch",
  "entry": [
    {
      "fullUrl": "urn:uuid:1.2.840.114350.1.13.202.3.7.8.688883.486",
      "resource": {
        "resourceType": "Composition",
        "id": "1.2.840.114350.1.13.202.3.7.8.688883.486",
        "meta": {
          "profile": [
            "http://hl7.org/fhir/us/ecr/StructureDefinition/eicr-composition"
          ],
          "source": [
            "ecr"
          ]
        },
        "identifier": [
          {
            "use": "official",
            "type": {
              "coding": [
                {
                  "code": "55751-2",
                  "display": "Initial Public Health Case Report",
                  "system": "http://loinc.org"
                }
              ]
            },
            "value": "28beb5ae-3f68-11ed-8bdc-005056a7fb21",
            "assigner": {
              "display": "EPC"
            }
          }
        ],
        "extension": [
          {
            "url": "http://hl7.org/fhir/StructureDefinition/composition-clinicaldocument-versionNumber",
            "valueString": "30"
          }
        ],
        "status": "final",
        "type": {
          "coding": [
            {
              "code": "55751-2",
              "display": "Initial Public Health Case Report",
              "system": "http://loinc.org"
            }
          ]
        },
        "date": "2022-10-04T17:04:37-07:00",
        "title": "Initial Public Health Case Report",
        "confidentiality": "N",
        "section": [
          {
            "id": "c80f67bb-6876-6ad5-ea57-46aea1afa973",
            "title": "Miscellaneous Notes",
            "text": {
              "status": "generated",
              "div": "<ul><li><caption>Addendum Note - Gregory, Lindsey - Wed Sep 28, 2022 12:00 PM PDT</caption><br>Modules accepted: Orders Addended by: GREGORY, LINDSEY on: 9/28/2022 08:36 PM Electronically signed by Gregory, Lindsey at 09/28/2022 8:36 PM PDT <br></li><li><caption>Addendum Note - Cshs, Hybrid Physician W Mycslink, MD - Wed Sep 28, 2022 12:00 PM PDT</caption><br>Modules accepted: Orders Addended by: CSHS, HYBRID PHYSICIAN W/ MYCHART TEST USER on: 9/28/2022 08:37 PM Electronically signed by Cshs, Hybrid Physician W Mycslink, MD at 09/28/2022 8:37 PM PDT <br></li></ul>documented in this encounter"
            },
            "code": {
              "coding": [
                {
                  "code": "10164-2",
                  "display": "HISTORY OF PRESENT ILLNESS",
                  "system": "http://loinc.org"
                }
              ]
            },
            "mode": "snapshot"
          },
          {
            "id": "4D3493EE-4441-11ED-B2C1-005056A7FB21",
            "title": "Immunizations",
            "text": {
              "status": "generated",
              "div": "Not on file documented as of this encounter"
            },
            "code": {
              "coding": [
                {
                  "code": "11369-6",
                  "display": "History of Immunization Narrative",
                  "system": "http://loinc.org"
                }
              ]
            },
            "mode": "snapshot"
          },
          {
            "id": "4D38E8F4-4441-11ED-B2C1-005056A7FB21",
            "title": "Administered Medications",
            "text": {
              "status": "generated",
              "div": "<table data-id='admMedTable11'><caption>Inactive Administered Medications - up to 3 most recent administrations</caption> <thead><tr><th>Medication Order</th><th>MAR Action</th><th>Action Date</th><th>Dose</th><th>Rate</th><th>Site</th></tr></thead><tbody><tr><td><paragraph data-id='med9'>alum-mag hydroxide-simeth (MAALOX) 200-200-20 mg/5 mL oral suspension 15 mL</paragraph><paragraph>15 mL, Oral, ONCE (IN CLINIC), On Wed 9/28/22 at 2100, For 1 dose, Order WILL be automatically substituted with P&T Approved equivalent per protocol. SHAKE WELL prior to use.</paragraph></td><td>Given</td><td>09/28/2022 8:37 PM PDT</td><td>15 mL</td><td></td><td></td></tr><tr><td></td><td></td></tr><tr><td><paragraph data-id='med7'>aspirin tablet 325 mg</paragraph><paragraph>325 mg, Oral, ONCE, On Wed 9/28/22 at 2100, For 1 dose</paragraph></td><td>Given</td><td>09/28/2022 8:37 PM PDT</td><td>325 mg</td><td></td><td></td></tr><tr><td></td><td></td></tr><tr><td><paragraph data-id='med8'>lidocaine (XYLOCAINE) 2% viscous oral solution</paragraph><paragraph>5 mL, Swish and Spit, ONCE (IN CLINIC), On Wed 9/28/22 at 2100, For 1 dose</paragraph></td><td>Given</td><td>09/28/2022 8:37 PM PDT</td><td>5 mL</td><td></td><td></td></tr><tr><td></td><td></td></tr></tbody></table>documented in this encounter"
            },
            "code": {
              "coding": [
                {
                  "code": "29549-3",
                  "display": "MEDICATIONS ADMINISTERED",
                  "system": "http://loinc.org"
                }
              ]
            },
            "mode": "snapshot"
          },
          {
            "id": "ca51a58e-d5d5-8f6d-28be-f526ca11481f",
            "title": "Plan of Treatment",
            "text": {
              "status": "generated",
              "div": "<paragraph>Not on file</paragraph>documented as of this encounter"
            },
            "code": {
              "coding": [
                {
                  "code": "18776-5",
                  "display": "Plan of care note",
                  "system": "http://loinc.org"
                }
              ]
            },
            "mode": "snapshot",
            "entry": [
              {
                "reference": "CarePlan/5ddcb7d6-d32c-e91c-f715-cf239eb4aee6"
              }
            ]
          },
          {
            "id": "4D3C57C8-4441-11ED-B2C1-005056A7FB21",
            "title": "Problems",
            "text": {
              "status": "generated",
              "div": "<table><thead><tr><th>Active Problems</th><th>Noted Date</th></tr></thead><tbody><tr data-id='problem16'><td data-id='problem16name'>Coronavirus infection</td><td>9/28/22</td></tr><tr data-id='problem17'><td data-id='problem17name'>Close exposure to COVID-19 virus</td><td>9/28/22</td></tr><tr data-id='problem15'><td data-id='problem15name'>Seasonal allergies</td><td>9/24/22</td></tr></tbody></table><table><thead><tr><th>Pregnant</th><th>Estimated Date of Delivery</th><th>Comments</th></tr></thead><tbody><tr><td>Yes</td><td>5/6/23</td><td>Based on Est. Date of Conception</td></tr></tbody></table>documented as of this encounter (statuses as of 10/04/2022)"
            },
            "code": {
              "coding": [
                {
                  "code": "11450-4",
                  "display": "Problem list - Reported",
                  "system": "http://loinc.org"
                }
              ]
            },
            "mode": "snapshot",
            "entry": [
              {
                "display": "Problem - Seasonal allergies",
                "reference": "Condition/1c2932d2-ae86-4b76-fafa-b0a12b17a027"
              },
              {
                "display": "Problem - Coronavirus infection",
                "reference": "Condition/1e7e7161-de05-f41e-f064-c227e43edd3e"
              },
              {
                "display": "Problem - Close exposure to COVID-19 virus",
                "reference": "Condition/6cb5bd36-5db9-68d4-ec94-afc3f96f6392"
              }
            ]
          },
          {
            "id": "578e38a5-2cc7-00e0-1769-ea74746c5fe8",
            "title": "Reason for Visit",
            "text": {
              "status": "generated",
              "div": "Not on file"
            },
            "code": {
              "coding": [
                {
                  "code": "29299-5",
                  "display": "REASON FOR VISIT",
                  "system": "http://loinc.org"
                }
              ]
            },
            "mode": "snapshot",
            "extension": [
              {
                "url": "http://hl7.org/fhir/cda/ccda/StructureDefinition/2.16.840.1.113883.10.20.22.2.12",
                "valueString": "Not on file"
              }
            ]
          },
          {
            "id": "4D3F4866-4441-11ED-B2C1-005056A7FB21",
            "title": "Results",
            "text": {
              "status": "generated",
              "div": "<ul><li data-id='Result.1.2.840.114350.1.13.202.3.7.2.798268.476858944'><caption data-id='Result.1.2.840.114350.1.13.202.3.7.2.798268.476858944.Procedure'>(ABNORMAL) CORONAVIRUS (COVID-19), PCR (09/29/2002 8:01 AM PDT)</caption><table><thead><tr><th>Component</th><th>Value</th><th>Ref Range</th><th>Test Method</th><th>Analysis Time</th><th>Performed At</th><th>Pathologist Signature</th></tr></thead><tbody><tr data-id='Result.1.2.840.114350.1.13.202.3.7.2.798268.476858944.Comp1'><td data-id='Result.1.2.840.114350.1.13.202.3.7.2.798268.476858944.Comp1Name'>SARS-CoV-2, RNA</td><td>Detected (A)</td><td>Not Detected</td><td></td><td></td><td>LABCORP</td><td data-id='Result.1.2.840.114350.1.13.202.3.7.2.798268.476858944.Comp1Signature'></td></tr><tr><td>Comment: <br>revoked sooner.U.S.C. 360bbb-3(b)(1), unless the authorization is terminated ordiagnosis of COVID-19 infection under section 564(b)(1) of the Act, 21of in vitro diagnostic tests for detection of SARS-CoV-2 virus and/orcircumstances exist justifying the authorization of the emergency useonly authorized for the duration of time the declaration thatFDA independent review of this validation is pending. This test isduring the Public Health Emergency) issued on February 29th, 2020.prior to Emergency Use Authorization for Coronavirus Disease-2019Laboratories Certified to Perform High Complexity Testing under CLIAthe FDA's Guidance Document (Policy for Diagnostics Testing inAuthorization (EUA). This test has been validated in accordance withapproved. This test has been authorized by FDA under an Emergency Useby LabCorp Laboratories. This test has not been FDA cleared orThis test was developed and its performance characteristics determined <br></td></tr></tbody></table><table><thead><tr><th>Specimen (Source)</th><th>Anatomical Location / Laterality</th><th>Collection Method / Volume</th><th>Collection Time</th><th>Received Time</th></tr></thead><tbody><tr><td data-id='Result.1.2.840.114350.1.13.202.3.7.2.798268.476858944.Specimen'>Nasopharyngeal (NASOPHARYNGEAL)</td><td></td><td></td><td>09/29/2002 8:01 AM PDT</td><td>09/29/2022</td></tr></tbody></table><table><thead><tr><th>Narrative</th></tr></thead><tbody><tr><td><paragraph>LABCORP - 09/29/2022 2:13 PM PDT</paragraph><paragraph data-id='Result.1.2.840.114350.1.13.202.3.7.2.798268.476858944.Narrative'>Performed at:  01 - Labcorp Burlington 1447 York Court, Burlington, NC  272153361 Lab Director: Sanjai Nagendra MD, Phone:  8007624344 <br></paragraph></td></tr></tbody></table><table><thead><tr><th>Authorizing Provider</th><th>Result Type</th></tr></thead><tbody><tr><td>Hybrid Physician W Mycslink Cshs MD</td><td>MICRO (NON-CULT) ORDERABLES</td></tr></tbody></table><table><thead><tr><th>Performing Organization</th><th>Address</th><th>City/State/ZIP Code</th><th>Phone Number</th></tr></thead><tbody><tr><td data-id='Result.1.2.840.114350.1.13.202.3.7.2.798268.476858944.PerformingLab'><paragraph>LABCORP</paragraph></td><td><paragraph>13112 Evening Creek Dr, Ste 200</paragraph></td><td><paragraph>San Diego, CA 92128</paragraph></td><td><paragraph>858-668-3700</paragraph></td></tr></tbody></table></li></ul>documented in this encounter"
            },
            "code": {
              "coding": [
                {
                  "code": "30954-2",
                  "display": "Relevant diagnostic tests/laboratory data Narrative",
                  "system": "http://loinc.org"
                }
              ]
            },
            "mode": "snapshot",
            "entry": [
              {
                "display": "SARS-CoV-2, RNA",
                "reference": "Observation/3a45daf2-6872-fd2a-6ede-606810d52bb2"
              },
              {
                "display": "Lab Interpretation",
                "reference": "Observation/e9c8e4b3-3fec-4f29-a5c5-e45f96680a4c"
              }
            ]
          },
          {
            "id": "8a900c7f-2adf-c43c-4fde-16f9696944df",
            "title": "Social History",
            "text": {
              "status": "generated",
              "div": "<table data-id='sochist21'><thead><tr><th>Tobacco Use</th><th>Types</th><th>Packs/Day</th><th>Years Used</th><th>Date</th></tr></thead><tbody><tr><td>Smoking Tobacco: Never</td><td></td><td data-id='sochist21packsperday'></td><td></td><td></td></tr><tr data-id='sochist21smokeless'><td>Smokeless Tobacco: Never</td><td></td><td></td><td></td><td></td></tr></tbody></table><table><thead><tr><th>Alcohol Use</th><th>Standard Drinks/Week</th><th>Comments</th></tr></thead><tbody><tr><td data-id='alcoholStatus'>Never</td><td>0 (1 standard drink = 0.6 oz pure alcohol)</td><td></td></tr></tbody></table><table><thead><tr><th>Education</th><th>Answer</th><th>Date Recorded</th></tr></thead><tbody><tr><td>What is the highest level of school you have completed or the highest degree you have received?</td><td>Bachelor's degree (e.g., BA, AB, BS)</td><td>09/24/2022</td></tr></tbody></table><table><thead><tr><th>Sex Assigned at Birth</th><th>Date Recorded</th></tr></thead><tbody><tr data-id='BirthSex22'><td data-id='BirthSex22Value'>Female</td><td>09/24/2022 12:34 PM PDT</td></tr></tbody></table>documented as of this encounter"
            },
            "code": {
              "coding": [
                {
                  "code": "29762-2",
                  "display": "Social history Narrative",
                  "system": "http://loinc.org"
                }
              ]
            },
            "mode": "snapshot"
          },
          {
            "id": "8cfa32e2-c143-2ba9-dc72-266a3ba673c6",
            "title": "Encounter Details",
            "text": {
              "status": "generated",
              "div": "<table><thead><tr><th>Date</th><th>Type</th><th>Department</th><th>Care Team</th><th>Description</th></tr></thead><tbody><tr data-id='encounter23'><td>9/28/22</td><td data-id='encounter23type'>Office Visit</td><td><paragraph>CSMG Internal Medicine</paragraph><paragraph>8767 Wilshire Blvd</paragraph><paragraph>2nd Floor</paragraph><paragraph>BEVERLY HILLS, CA 90211</paragraph><paragraph>310-385-6031</paragraph></td><td><paragraph>Canavan, Allison H, MD</paragraph><paragraph>8631 W. THIRD STREET</paragraph><paragraph>STE 510E</paragraph><paragraph>LOS ANGELES, CA 90048</paragraph><paragraph>310-385-3380 (Work)</paragraph><paragraph>310-385-3224 (Fax)</paragraph><paragraph>allison.canavan@cshs.org</paragraph></td><td data-id='encounter23desc'><br>Close exposure to COVID-19 virusCoronavirus infection (Primary Dx);</td></tr></tbody></table>"
            },
            "code": {
              "coding": [
                {
                  "code": "46240-8",
                  "display": "History of Hospitalizations+Outpatient visits Narrative",
                  "system": "http://loinc.org"
                }
              ]
            },
            "mode": "snapshot"
          },
          {
            "id": "47663d83-626c-c5f7-50e9-73dc719baaee",
            "title": "Reportability Response Information Section",
            "text": {
              "status": "generated",
              "div": "<div xmlns=\"http://www.w3.org/1999/xhtml\">Reportability Response Information Section</div>"
            },
            "extension": [
              {
                "url": "http://hl7.org/fhir/us/ecr/StructureDefinition/rr-composition",
                "valueIdentifier": {
                  "use": "official",
                  "type": {
                    "coding": [
                      {
                        "code": "88085-6",
                        "display": "Reportability response report Document Public health",
                        "system": "http://loinc.org"
                      }
                    ]
                  },
                  "value": "f4c902d9-1d5f-45d4-ab98-c4c1c0844c1b"
                }
              },
              {
                "url": "http://hl7.org/fhir/us/ecr/StructureDefinition/rr-eicr-processing-status-extension",
                "valueCodeableConcept": {
                  "coding": [
                    {
                      "code": "RRVS19",
                      "display": "eICR processed",
                      "system": "urn:oid:2.16.840.1.114222.4.5.274"
                    }
                  ]
                }
              }
            ],
            "code": {
              "coding": [
                {
                  "code": "88085-6",
                  "display": "Reportability response report Document Public health",
                  "system": "http://loinc.org"
                }
              ]
            },
            "entry": [
              {
                "display": "Relevant Reportable Condition Observation - Disease caused by severe acute respiratory syndrome coronavirus 2 (disorder)",
                "reference": "Observation/7036e22a-8b10-44de-92aa-1265753a1fa6"
              },
              {
                "display": "Relevant Reportable Condition Observation - Disease caused by severe acute respiratory syndrome coronavirus 2 (disorder)",
                "reference": "Observation/650f0023-21cf-4dc4-ae9d-54e0bdf2f013"
              }
            ]
          }
        ],
        "subject": {
          "reference": "Patient/a8e4cb0a-78ee-44ff-9aa6-425d243c1a75"
        },
        "relatesTo": [
          {
            "code": "replaces",
            "targetReference": {
              "reference": "Composition/1.2.840.114350.1.13.202.3.7.8.688883.485"
            },
            "extension": [
              {
                "url": "http://hl7.org/fhir/StructureDefinition/composition-clinicaldocument-versionNumber",
                "valueString": "29"
              }
            ]
          }
        ],
        "encounter": {
          "reference": "Encounter/ad0fdf94-43bd-c07e-67dd-55274fda1880"
        },
        "custodian": {
          "reference": "Organization/7a0fa8f7-d4a1-61ce-4335-518aa22fcfbb"
        },
        "author": [
          {
            "reference": "Practitioner/03576c78-adb1-ff57-dd84-d8bc1ba0f861"
          },
          {
            "reference": "Device/5133672a-39c9-6145-51b2-34054fe50eaa"
          }
        ]
      },
      "request": {
        "method": "PUT",
        "url": "Composition/1.2.840.114350.1.13.202.3.7.8.688883.486"
      }
    },
    {
      "fullUrl": "urn:uuid:ad0fdf94-43bd-c07e-67dd-55274fda1880",
      "resource": {
        "resourceType": "Encounter",
        "id": "ad0fdf94-43bd-c07e-67dd-55274fda1880",
        "status": "unknown",
        "class": {
          "code": "AMB",
          "display": "Ambulatory",
          "system": "urn:oid:2.16.840.1.113883.5.4"
        },
        "identifier": [
          {
            "system": "urn:oid:1.2.840.114350.1.13.202.3.7.3.698084.8",
            "value": "49154645347"
          }
        ],
        "period": {
          "start": "2022-09-28T12:00:00-07:00",
          "end": "2022-09-28T12:30:00-07:00"
        },
        "subject": {
          "reference": "Patient/a8e4cb0a-78ee-44ff-9aa6-425d243c1a75"
        },
        "location": [
          {
            "id": "1.2.840.114350.1.13.202.3.7.2.686980",
            "location": {
              "reference": "Location/fe72934a-15d3-8df5-b580-ee21c16b39c9",
              "display": "CSMG Internal Medicine"
            },
            "extension": [
              {
                "url": "http://build.fhir.org/ig/HL7/case-reporting/StructureDefinition-us-ph-location-definitions.html#Location.type",
                "valueCodeableConcept": {
                  "coding": [
                    {
                      "code": "257622000",
                      "display": "Healthcare Facility",
                      "system": "http://snomed.info/sct"
                    }
                  ]
                }
              }
            ]
          }
        ],
        "participant": [
          {
            "type": [
              {
                "coding": [
                  {
                    "system": "http://terminology.hl7.org/CodeSystem/v3-ParticipationType",
                    "code": "ATND"
                  }
                ]
              }
            ],
            "individual": {
              "reference": "Practitioner/54aef910-c31a-d466-11e5-960b7c417f32"
            }
          }
        ],
        "meta": {
          "source": [
            "ecr"
          ]
        }
      },
      "request": {
        "method": "PUT",
        "url": "Encounter/ad0fdf94-43bd-c07e-67dd-55274fda1880"
      }
    },
    {
      "fullUrl": "urn:uuid:fe72934a-15d3-8df5-b580-ee21c16b39c9",
      "resource": {
        "resourceType": "Location",
        "id": "fe72934a-15d3-8df5-b580-ee21c16b39c9",
        "identifier": [
          {
            "value": "1.2.840.114350.1.13.202.3.7.2.686980"
          }
        ],
        "name": "CSMG Internal Medicine",
        "address": {
          "use": "work",
          "line": [
            "8767 Wilshire Blvd",
            "2nd Floor"
          ],
          "city": "BEVERLY HILLS",
          "state": "CA",
          "country": "US",
          "postalCode": "90211",
          "district": "LOS ANGELE"
        },
        "type": [
          {
            "coding": [
              {
                "code": "257622000",
                "display": "Healthcare Facility",
                "system": "http://snomed.info/sct"
              }
            ]
          }
        ],
        "meta": {
          "source": [
            "ecr"
          ]
        }
      },
      "request": {
        "method": "PUT",
        "url": "Location/fe72934a-15d3-8df5-b580-ee21c16b39c9"
      }
    },
    {
      "fullUrl": "urn:uuid:54aef910-c31a-d466-11e5-960b7c417f32",
      "resource": {
        "resourceType": "Practitioner",
        "id": "54aef910-c31a-d466-11e5-960b7c417f32",
        "meta": {
          "profile": [
            "http://hl7.org/fhir/us/core/StructureDefinition/us-core-practitioner"
          ],
          "source": [
            "ecr"
          ]
        },
        "extension": [
          {
            "url": "http://hl7.org/fhir/StructureDefinition/_datatype",
            "valueString": "Responsible Party"
          }
        ],
        "identifier": [
          {
            "system": "urn:oid:1.2.840.114350.1.13.202.3.7.2.836982",
            "value": "9992"
          }
        ],
        "name": [
          {
            "use": "usual",
            "text": "Cedars-Sinai"
          }
        ],
        "address": [
          {
            "use": "work",
            "line": [
              "8700 Beverly Blvd"
            ],
            "city": "Los Angeles",
            "state": "CA",
            "postalCode": "90048-1803"
          }
        ]
      },
      "request": {
        "method": "PUT",
        "url": "Practitioner/54aef910-c31a-d466-11e5-960b7c417f32"
      }
    },
    {
      "fullUrl": "urn:uuid:d6930155-009b-92a0-d2b9-007761c45ad2",
      "resource": {
        "resourceType": "Organization",
        "id": "d6930155-009b-92a0-d2b9-007761c45ad2",
        "meta": {
          "profile": [
            "http://hl7.org/fhir/us/ecr/StructureDefinition/rr-routing-entity-organization"
          ],
          "source": [
            "ecr"
          ]
        },
        "active": true,
        "type": [
          {
            "coding": [
              {
                "system": "urn:oid:2.16.840.1.114222.4.5.232",
                "code": "RR7",
                "display": "Routing Entity"
              }
            ]
          }
        ],
        "name": "California Department of Public Health",
        "address": [
          {
            "use": "work",
            "city": "Sacramento",
            "state": "CA"
          }
        ],
        "telecom": [
          {
            "system": "email",
            "value": "CalREDIEeCR@cdph.ca.gov",
            "use": "work"
          }
        ]
      },
      "request": {
        "method": "PUT",
        "url": "Organization/d6930155-009b-92a0-d2b9-007761c45ad2"
      }
    },
    {
      "fullUrl": "urn:uuid:7036e22a-8b10-44de-92aa-1265753a1fa6",
      "resource": {
        "resourceType": "Observation",
        "id": "7036e22a-8b10-44de-92aa-1265753a1fa6",
        "meta": {
          "profile": [
            "http://hl7.org/fhir/us/ecr/StructureDefinition/rr-reportability-information-observation"
          ],
          "source": [
            "ecr"
          ]
        },
        "identifier": [
          {
            "system": "urn:ietf:rfc:3986",
            "value": "urn:uuid:7036e22a-8b10-44de-92aa-1265753a1fa6"
          }
        ],
        "status": "final",
        "code": {
          "coding": [
            {
              "code": "64572001",
              "display": "Condition",
              "system": "http://snomed.info/sct"
            },
            {
              "code": "75323-6",
              "display": "Condition",
              "system": "http://loinc.org"
            }
          ]
        },
        "valueCodeableConcept": {
          "coding": [
            {
              "code": "840539006",
              "display": "Disease caused by severe acute respiratory syndrome coronavirus 2 (disorder)",
              "system": "http://snomed.info/sct"
            }
          ]
        },
        "extension": [
          {
            "url": "http://hl7.org/fhir/us/ecr/StructureDefinition/us-ph-determination-of-reportability-rule-extension",
            "valueString": "Detection of SARS-CoV-2 nucleic acid in a clinical or post-mortem specimen by any method"
          }
        ],
        "performer": [
          {
            "reference": "Organization/d6930155-009b-92a0-d2b9-007761c45ad2",
            "display": "California Department of Public Health"
          }
        ]
      },
      "request": {
        "method": "PUT",
        "url": "Observation/7036e22a-8b10-44de-92aa-1265753a1fa6"
      }
    },
    {
      "fullUrl": "urn:uuid:f87de327-7272-42ac-012d-58904caf7ef1",
      "resource": {
        "resourceType": "Organization",
        "id": "f87de327-7272-42ac-012d-58904caf7ef1",
        "meta": {
          "profile": [
            "http://hl7.org/fhir/us/ecr/StructureDefinition/rr-routing-entity-organization"
          ],
          "source": [
            "ecr"
          ]
        },
        "active": true,
        "type": [
          {
            "coding": [
              {
                "system": "urn:oid:2.16.840.1.114222.4.5.232",
                "code": "RR7",
                "display": "Routing Entity"
              }
            ]
          }
        ],
        "name": "Los Angeles County Department of Public Health"
      },
      "request": {
        "method": "PUT",
        "url": "Organization/f87de327-7272-42ac-012d-58904caf7ef1"
      }
    },
    {
      "fullUrl": "urn:uuid:650f0023-21cf-4dc4-ae9d-54e0bdf2f013",
      "resource": {
        "resourceType": "Observation",
        "id": "650f0023-21cf-4dc4-ae9d-54e0bdf2f013",
        "meta": {
          "profile": [
            "http://hl7.org/fhir/us/ecr/StructureDefinition/rr-reportability-information-observation"
          ],
          "source": [
            "ecr"
          ]
        },
        "identifier": [
          {
            "system": "urn:ietf:rfc:3986",
            "value": "urn:uuid:650f0023-21cf-4dc4-ae9d-54e0bdf2f013"
          }
        ],
        "status": "final",
        "code": {
          "coding": [
            {
              "code": "64572001",
              "display": "Condition",
              "system": "http://snomed.info/sct"
            },
            {
              "code": "75323-6",
              "display": "Condition",
              "system": "http://loinc.org"
            }
          ]
        },
        "valueCodeableConcept": {
          "coding": [
            {
              "code": "840539006",
              "display": "Disease caused by severe acute respiratory syndrome coronavirus 2 (disorder)",
              "system": "http://snomed.info/sct"
            }
          ]
        },
        "extension": [
          {
            "url": "http://hl7.org/fhir/us/ecr/StructureDefinition/us-ph-determination-of-reportability-rule-extension",
            "valueString": "Close contact in the 14 days prior to onset of symptoms with a confirmed or probable case of COVID-19 (Partially implemented as exposure with no timeframe parameters)"
          },
          {
            "url": "http://hl7.org/fhir/us/ecr/StructureDefinition/us-ph-determination-of-reportability-rule-extension",
            "valueString": "COVID-19 (as a diagnosis or active problem)"
          },
          {
            "url": "http://hl7.org/fhir/us/ecr/StructureDefinition/us-ph-determination-of-reportability-rule-extension",
            "valueString": "Detection of SARS-CoV-2 nucleic acid in a clinical or post-mortem specimen by any method"
          }
        ],
        "performer": [
          {
            "reference": "Organization/f87de327-7272-42ac-012d-58904caf7ef1",
            "display": "Los Angeles County Department of Public Health"
          }
        ]
      },
      "request": {
        "method": "PUT",
        "url": "Observation/650f0023-21cf-4dc4-ae9d-54e0bdf2f013"
      }
    },
    {
      "fullUrl": "urn:uuid:7a0fa8f7-d4a1-61ce-4335-518aa22fcfbb",
      "resource": {
        "resourceType": "Organization",
        "id": "7a0fa8f7-d4a1-61ce-4335-518aa22fcfbb",
        "identifier": [
          {
            "system": "http://hl7.org/fhir/sid/us-npi",
            "value": "1639172372"
          }
        ],
        "name": "Cedars-Sinai",
        "address": [
          {
            "use": "work",
            "line": [
              "8700 Beverly Blvd"
            ],
            "city": "Los Angeles",
            "state": "CA",
            "postalCode": "90048-1803"
          }
        ],
        "telecom": [
          {
            "system": "phone",
            "value": "+1-323-866-8600",
            "use": "work"
          }
        ],
        "meta": {
          "source": [
            "ecr"
          ]
        }
      },
      "request": {
        "method": "PUT",
        "url": "Organization/7a0fa8f7-d4a1-61ce-4335-518aa22fcfbb"
      }
    },
    {
      "fullUrl": "urn:uuid:03576c78-adb1-ff57-dd84-d8bc1ba0f861",
      "resource": {
        "resourceType": "Practitioner",
        "id": "03576c78-adb1-ff57-dd84-d8bc1ba0f861",
        "meta": {
          "profile": [
            "http://hl7.org/fhir/us/core/StructureDefinition/us-core-practitioner"
          ],
          "source": [
            "ecr"
          ]
        },
        "identifier": [
          {
            "system": "urn:oid:1.2.840.114350.1.13.202.3.7.2.697780",
            "value": "TANGCX"
          }
        ],
        "name": [
          {
            "family": "Tang",
            "given": [
              "Chris"
            ]
          },
          {
            "use": "usual",
            "text": "Cedars-Sinai"
          }
        ],
        "address": [
          {
            "use": "work",
            "line": [
              "8700 Beverly Blvd"
            ],
            "city": "Los Angeles",
            "state": "CA",
            "postalCode": "90048-1803"
          }
        ]
      },
      "request": {
        "method": "PUT",
        "url": "Practitioner/03576c78-adb1-ff57-dd84-d8bc1ba0f861"
      }
    },
    {
      "fullUrl": "urn:uuid:5133672a-39c9-6145-51b2-34054fe50eaa",
      "resource": {
        "resourceType": "Device",
        "id": "5133672a-39c9-6145-51b2-34054fe50eaa",
        "identifier": [
          {
            "system": "urn:oid:1.2.840.114350.1.1",
            "value": "10.2"
          }
        ],
        "type": {
          "coding": [
            {
              "display": "Epic - Version 10.2"
            }
          ]
        },
        "manufacturer": "Epic - Version 10.2",
        "version": [
          {
            "value": "Epic - Version 10.2"
          }
        ],
        "category": {
          "coding": [
            {
              "system": "http://hl7.org/fhir/device-category",
              "code": "software",
              "display": "software"
            }
          ]
        },
        "owner": {
          "reference": "Organization/7a0fa8f7-d4a1-61ce-4335-518aa22fcfbb"
        },
        "meta": {
          "source": [
            "ecr"
          ]
        }
      },
      "request": {
        "method": "PUT",
        "url": "Device/5133672a-39c9-6145-51b2-34054fe50eaa"
      }
    },
    {
      "fullUrl": "urn:uuid:a8e4cb0a-78ee-44ff-9aa6-425d243c1a75",
      "resource": {
        "resourceType": "Patient",
        "id": "a8e4cb0a-78ee-44ff-9aa6-425d243c1a75",
        "meta": {
          "profile": [
            "http://hl7.org/fhir/us/core/StructureDefinition/us-core-patient"
          ],
          "source": [
            "ecr"
          ]
        },
        "identifier": [
          {
            "system": "urn:oid:1.2.840.114350.1.13.202.3.7.3.688884.100",
            "value": "CSTG9SJ9RQGHSV5"
          },
          {
            "system": "urn:oid:1.2.840.114350.1.13.202.3.7.5.737384.26",
            "value": "402000828",
            "assigner": {
              "display": "CSMRN"
            }
          }
        ],
        "name": [
          {
            "use": "official",
            "family": "Zzztestsix",
            "given": [
              "Cedarsecr"
            ]
          }
        ],
        "birthDate": "1980-01-01",
        "deceasedBoolean": false,
        "gender": "female",
        "extension": [
          {
            "url": "http://hl7.org/fhir/us/core/StructureDefinition/us-core-race",
            "extension": [
              {
                "url": "ombCategory",
                "valueCoding": {
                  "code": "2106-3",
                  "display": "White"
                }
              },
              {
                "url": "text",
                "valueString": "White"
              }
            ]
          },
          {
            "url": "http://hl7.org/fhir/us/core/StructureDefinition/us-core-ethnicity",
            "extension": [
              {
                "url": "ombCategory",
                "valueCoding": {
                  "code": "2186-5",
                  "display": "Not Hispanic or Latino"
                }
              },
              {
                "url": "text",
                "valueString": "Not Hispanic or Latino"
              }
            ]
          },
          {
            "url": "http://hl7.org/fhir/us/core/StructureDefinition/us-core-birthsex",
            "extension": [
              {
                "url": "value",
                "valueCodeableConcept": {
                  "coding": [
                    {
                      "code": "F",
                      "system": "urn:oid:2.16.840.1.113883.5.1"
                    }
                  ]
                }
              }
            ]
          }
        ],
        "address": [
          {
            "use": "home",
            "line": [
              "123 Hermosa Road"
            ],
            "city": "Los Angeles",
            "state": "CA",
            "country": "US",
            "postalCode": "90210",
            "district": "LOS ANGELE"
          }
        ],
        "telecom": [
          {
            "system": "phone",
            "value": "+1-806-806-8066",
            "use": "home"
          },
          {
            "system": "phone",
            "value": "+1-805-805-8055",
            "use": "work"
          },
          {
            "system": "phone",
            "value": "+1-804-804-8044",
            "use": "mobile"
          },
          {
            "system": "email",
            "value": "testpatientsix@gmail.com"
          }
        ],
        "communication": [
          {
            "language": {
              "coding": [
                {
                  "system": "urn:ietf:bcp:47",
                  "code": "en",
                  "display": "English"
                }
              ]
            },
            "preferred": true
          }
        ]
      },
      "request": {
        "method": "PUT",
        "url": "Patient/a8e4cb0a-78ee-44ff-9aa6-425d243c1a75"
      }
    },
    {
      "fullUrl": "urn:uuid:",
      "resource": {
        "resourceType": "CareTeam",
        "subject": {
          "reference": "Patient/a8e4cb0a-78ee-44ff-9aa6-425d243c1a75"
        },
        "meta": {
          "source": [
            "ecr"
          ]
        }
      }
    },
    {
      "fullUrl": "urn:uuid:5ddcb7d6-d32c-e91c-f715-cf239eb4aee6",
      "resource": {
        "resourceType": "CarePlan",
        "id": "5ddcb7d6-d32c-e91c-f715-cf239eb4aee6",
        "status": "unknown",
        "intent": "proposal",
        "subject": {
          "reference": "Patient/a8e4cb0a-78ee-44ff-9aa6-425d243c1a75"
        },
        "meta": {
          "source": [
            "ecr"
          ]
        }
      },
      "request": {
        "method": "PUT",
        "url": "CarePlan/5ddcb7d6-d32c-e91c-f715-cf239eb4aee6"
      }
    },
    {
      "fullUrl": "urn:uuid:1c2932d2-ae86-4b76-fafa-b0a12b17a027",
      "resource": {
        "resourceType": "Condition",
        "id": "1c2932d2-ae86-4b76-fafa-b0a12b17a027",
        "identifier": [
          {
            "system": "urn:oid:1.2.840.114350.1.13.202.3.7.2.768076",
            "value": "2336"
          }
        ],
        "clinicalStatus": {
          "coding": [
            {
              "code": "55561003",
              "display": "Active",
              "system": "http://snomed.info/sct"
            }
          ]
        },
        "category": [
          {
            "coding": [
              {
                "code": "problem-item-list",
                "display": "Problem List Item",
                "system": "http://hl7.org/fhir/us/core/ValueSet/us-core-condition-category"
              }
            ]
          }
        ],
        "code": {
          "coding": [
            {
              "code": "J30.2",
              "display": "Seasonal allergies",
              "system": "urn:oid:2.16.840.1.113883.6.90"
            }
          ]
        },
        "onsetDateTime": "2022-09-24",
        "subject": {
          "reference": "Patient/a8e4cb0a-78ee-44ff-9aa6-425d243c1a75"
        },
        "meta": {
          "source": [
            "ecr"
          ]
        }
      },
      "request": {
        "method": "PUT",
        "url": "Condition/1c2932d2-ae86-4b76-fafa-b0a12b17a027"
      }
    },
    {
      "fullUrl": "urn:uuid:1e7e7161-de05-f41e-f064-c227e43edd3e",
      "resource": {
        "resourceType": "Condition",
        "id": "1e7e7161-de05-f41e-f064-c227e43edd3e",
        "identifier": [
          {
            "system": "urn:oid:1.2.840.114350.1.13.202.3.7.2.768076",
            "value": "2337"
          }
        ],
        "clinicalStatus": {
          "coding": [
            {
              "code": "55561003",
              "display": "Active",
              "system": "http://snomed.info/sct"
            }
          ]
        },
        "category": [
          {
            "coding": [
              {
                "code": "problem-item-list",
                "display": "Problem List Item",
                "system": "http://hl7.org/fhir/us/core/ValueSet/us-core-condition-category"
              }
            ]
          }
        ],
        "code": {
          "coding": [
            {
              "code": "B34.2",
              "display": "Coronavirus infection",
              "system": "urn:oid:2.16.840.1.113883.6.90"
            }
          ]
        },
        "onsetDateTime": "2022-09-28",
        "subject": {
          "reference": "Patient/a8e4cb0a-78ee-44ff-9aa6-425d243c1a75"
        },
        "meta": {
          "source": [
            "ecr"
          ]
        }
      },
      "request": {
        "method": "PUT",
        "url": "Condition/1e7e7161-de05-f41e-f064-c227e43edd3e"
      }
    },
    {
      "fullUrl": "urn:uuid:6cb5bd36-5db9-68d4-ec94-afc3f96f6392",
      "resource": {
        "resourceType": "Condition",
        "id": "6cb5bd36-5db9-68d4-ec94-afc3f96f6392",
        "identifier": [
          {
            "system": "urn:oid:1.2.840.114350.1.13.202.3.7.2.768076",
            "value": "2338"
          }
        ],
        "clinicalStatus": {
          "coding": [
            {
              "code": "55561003",
              "display": "Active",
              "system": "http://snomed.info/sct"
            }
          ]
        },
        "category": [
          {
            "coding": [
              {
                "code": "problem-item-list",
                "display": "Problem List Item",
                "system": "http://hl7.org/fhir/us/core/ValueSet/us-core-condition-category"
              }
            ]
          }
        ],
        "code": {
          "coding": [
            {
              "code": "Z20.822",
              "display": "Close exposure to COVID-19 virus",
              "system": "urn:oid:2.16.840.1.113883.6.90"
            }
          ]
        },
        "onsetDateTime": "2022-09-28",
        "subject": {
          "reference": "Patient/a8e4cb0a-78ee-44ff-9aa6-425d243c1a75"
        },
        "meta": {
          "source": [
            "ecr"
          ]
        }
      },
      "request": {
        "method": "PUT",
        "url": "Condition/6cb5bd36-5db9-68d4-ec94-afc3f96f6392"
      }
    },
    {
      "fullUrl": "urn:uuid:3c71d109-de0e-5bfb-d709-489b26a234db",
      "resource": {
        "resourceType": "DiagnosticReport",
        "id": "3c71d109-de0e-5bfb-d709-489b26a234db",
        "identifier": [
          {
            "system": "urn:oid:1.2.840.114350.1.13.202.3.7.2.798268",
            "value": "476858944"
          }
        ],
        "status": "final",
        "code": {
          "coding": [
            {
              "code": "10251656",
              "display": "CORONAVIRUS (COVID-19), PCR",
              "system": "urn:oid:1.2.840.114350.1.13.202.3.7.2.696580"
            }
          ]
        },
        "effectivePeriod": {
          "start": "2002-09-29T15:01:00Z",
          "end": "2002-09-29T15:01:00Z"
        },
        "subject": {
          "reference": "Patient/a8e4cb0a-78ee-44ff-9aa6-425d243c1a75"
        },
        "performer": [
          {
            "reference": "Organization/cdc68856-765f-f4d3-0ddc-ab56ee90eb35"
          }
        ],
        "result": [
          {
            "reference": "Observation/3a45daf2-6872-fd2a-6ede-606810d52bb2"
          },
          {
            "reference": "Observation/e9c8e4b3-3fec-4f29-a5c5-e45f96680a4c"
          }
        ],
        "meta": {
          "source": [
            "ecr"
          ]
        }
      },
      "request": {
        "method": "PUT",
        "url": "DiagnosticReport/3c71d109-de0e-5bfb-d709-489b26a234db"
      }
    },
    {
      "fullUrl": "urn:uuid:cdc68856-765f-f4d3-0ddc-ab56ee90eb35",
      "resource": {
        "resourceType": "Organization",
        "id": "cdc68856-765f-f4d3-0ddc-ab56ee90eb35",
        "name": "LABCORP",
        "address": [
          {
            "use": "work",
            "line": [
              "13112 Evening Creek Dr, Ste 200"
            ],
            "city": "San Diego",
            "state": "CA",
            "postalCode": "92128"
          }
        ],
        "meta": {
          "source": [
            "ecr"
          ]
        }
      },
      "request": {
        "method": "PUT",
        "url": "Organization/cdc68856-765f-f4d3-0ddc-ab56ee90eb35"
      }
    },
    {
      "fullUrl": "urn:uuid:3a45daf2-6872-fd2a-6ede-606810d52bb2",
      "resource": {
        "resourceType": "Observation",
        "id": "3a45daf2-6872-fd2a-6ede-606810d52bb2",
        "meta": {
          "profile": [
            "http://hl7.org/fhir/us/core/StructureDefinition/us-core-observationresults"
          ],
          "source": [
            "ecr"
          ]
        },
        "identifier": [
          {
            "system": "urn:oid:1.2.840.114350.1.13.202.3.7.6.798268.2000",
            "value": "476858944.1"
          }
        ],
        "category": [
          {
            "coding": [
              {
                "system": "http://terminology.hl7.org/CodeSystem/observation-category",
                "code": "laboratory"
              }
            ]
          }
        ],
        "status": "final",
        "code": {
          "coding": [
            {
              "code": "94500-6",
              "display": "SARS-CoV-2, RNA",
              "system": "http://loinc.org"
            }
          ]
        },
        "effectiveDateTime": "2022-09-29T21:13:00Z",
        "valueString": "Detected",
        "referenceRange": [
          {
            "text": "Not Detected"
          }
        ],
        "interpretation": [
          {
            "coding": [
              {
                "code": "A",
                "display": "Abnormal",
                "system": "http://terminology.hl7.org/CodeSystem/v3-ObservationInterpretation"
              }
            ]
          }
        ],
        "extension": [
          {
            "url": "http://hl7.org/fhir/R4/specimen.html",
            "extension": [
              {
                "url": "specimen collection time",
                "valueDateTime": "2002-09-29T15:01:00Z"
              },
              {
                "url": "specimen receive time",
                "valueDateTime": "2022-09-29T07:00:00Z"
              },
              {
                "url": "observation entry reference value",
                "valueString": "#Result.1.2.840.114350.1.13.202.3.7.2.798268.476858944.Comp1"
              }
            ]
          }
        ],
        "subject": {
          "reference": "Patient/a8e4cb0a-78ee-44ff-9aa6-425d243c1a75"
        },
        "performer": [
          {
            "display": "LABCORP",
            "reference": "Organization/cdcee673-8d7c-d7f5-79f8-09ecfc30200c"
          }
        ]
      },
      "request": {
        "method": "PUT",
        "url": "Observation/3a45daf2-6872-fd2a-6ede-606810d52bb2"
      }
    },
    {
      "fullUrl": "urn:uuid:cdcee673-8d7c-d7f5-79f8-09ecfc30200c",
      "resource": {
        "resourceType": "Organization",
        "id": "cdcee673-8d7c-d7f5-79f8-09ecfc30200c",
        "name": "LABCORP",
        "address": [
          {
            "line": [
              "13112 Evening Creek Dr, Ste 200"
            ],
            "city": "San Diego",
            "state": "CA",
            "postalCode": "92128"
          }
        ],
        "telecom": [
          {
            "system": "phone",
            "value": "+1-858-668-3700"
          }
        ],
        "meta": {
          "source": [
            "ecr"
          ]
        }
      },
      "request": {
        "method": "PUT",
        "url": "Organization/cdcee673-8d7c-d7f5-79f8-09ecfc30200c"
      }
    },
    {
      "fullUrl": "urn:uuid:e9c8e4b3-3fec-4f29-a5c5-e45f96680a4c",
      "resource": {
        "resourceType": "Observation",
        "id": "e9c8e4b3-3fec-4f29-a5c5-e45f96680a4c",
        "meta": {
          "profile": [
            "http://hl7.org/fhir/us/core/StructureDefinition/us-core-observationresults"
          ],
          "source": [
            "ecr"
          ]
        },
        "identifier": [
          {
            "system": "urn:oid:1.2.840.114350.1.13.202.3.7.2.798268",
            "value": "476858944"
          }
        ],
        "category": [
          {
            "coding": [
              {
                "system": "http://terminology.hl7.org/CodeSystem/observation-category",
                "code": "laboratory"
              }
            ]
          }
        ],
        "status": "final",
        "code": {
          "coding": [
            {
              "code": "56850-1",
              "display": "Lab Interpretation",
              "system": "http://loinc.org"
            }
          ]
        },
        "effectiveDateTime": "2022-09-29T21:13:00Z",
        "valueString": "Abnormal",
        "extension": [
          {
            "url": "http://hl7.org/fhir/R4/specimen.html",
            "extension": [
              {
                "url": "specimen collection time",
                "valueDateTime": "2002-09-29T15:01:00Z"
              },
              {
                "url": "specimen receive time",
                "valueDateTime": "2022-09-29T07:00:00Z"
              }
            ]
          }
        ],
        "subject": {
          "reference": "Patient/a8e4cb0a-78ee-44ff-9aa6-425d243c1a75"
        }
      },
      "request": {
        "method": "PUT",
        "url": "Observation/e9c8e4b3-3fec-4f29-a5c5-e45f96680a4c"
      }
    },
    {
      "fullUrl": "urn:uuid:a25b5d68-4093-c72c-7657-75e82624305d",
      "resource": {
        "resourceType": "Observation",
        "id": "a25b5d68-4093-c72c-7657-75e82624305d",
        "meta": {
          "profile": [
            "http://hl7.org/fhir/us/core/StructureDefinition/us-core-observationresults"
          ],
          "source": [
            "ecr"
          ]
        },
        "identifier": [
          {
            "system": "urn:oid:1.2.840.114350.1.13.202.3.7.1.1040.1",
            "value": "Z264^^72166-2"
          }
        ],
        "category": [
          {
            "coding": [
              {
                "system": "http://terminology.hl7.org/CodeSystem/observation-category",
                "code": "social-history"
              }
            ]
          }
        ],
        "status": "final",
        "code": {
          "coding": [
            {
              "code": "72166-2",
              "display": "Tobacco smoking status NHIS",
              "system": "http://loinc.org"
            }
          ]
        },
        "effectiveDateTime": "2022-09-24",
        "valueCodeableConcept": {
          "coding": [
            {
              "code": "266919005",
              "display": "Never smoked tobacco",
              "system": "http://snomed.info/sct"
            }
          ]
        },
        "subject": {
          "reference": "Patient/a8e4cb0a-78ee-44ff-9aa6-425d243c1a75"
        }
      },
      "request": {
        "method": "PUT",
        "url": "Observation/a25b5d68-4093-c72c-7657-75e82624305d"
      }
    },
    {
      "fullUrl": "urn:uuid:f9b1e556-f475-d9fb-619f-78f50c714bfd",
      "resource": {
        "resourceType": "Observation",
        "id": "f9b1e556-f475-d9fb-619f-78f50c714bfd",
        "meta": {
          "profile": [
            "http://hl7.org/fhir/us/core/StructureDefinition/us-core-observationresults"
          ],
          "source": [
            "ecr"
          ]
        },
        "identifier": [
          {
            "system": "urn:oid:1.2.840.114350.1.13.202.3.7.1.1040.8",
            "value": "Z264^^713914004"
          }
        ],
        "category": [
          {
            "coding": [
              {
                "system": "http://terminology.hl7.org/CodeSystem/observation-category",
                "code": "social-history"
              }
            ]
          }
        ],
        "status": "final",
        "code": {
          "coding": [
            {
              "code": "88031-0",
              "display": "Smokeless tobacco status",
              "system": "http://loinc.org"
            }
          ]
        },
        "effectiveDateTime": "2022-09-24",
        "valueCodeableConcept": {
          "coding": [
            {
              "code": "451381000124107",
              "display": "Smokeless tobacco non-user",
              "system": "http://snomed.info/sct"
            }
          ]
        },
        "subject": {
          "reference": "Patient/a8e4cb0a-78ee-44ff-9aa6-425d243c1a75"
        }
      },
      "request": {
        "method": "PUT",
        "url": "Observation/f9b1e556-f475-d9fb-619f-78f50c714bfd"
      }
    },
    {
      "fullUrl": "urn:uuid:14ffb63a-2610-1814-6651-9aa1c8d5bb07",
      "resource": {
        "resourceType": "Observation",
        "id": "14ffb63a-2610-1814-6651-9aa1c8d5bb07",
        "meta": {
          "profile": [
            "http://hl7.org/fhir/us/core/StructureDefinition/us-core-observationresults"
          ],
          "source": [
            "ecr"
          ]
        },
        "identifier": [
          {
            "system": "urn:oid:1.2.840.114350.1.13.202.3.7.1.1040.12",
            "value": "Z264^55154.99^160573003"
          }
        ],
        "category": [
          {
            "coding": [
              {
                "system": "http://terminology.hl7.org/CodeSystem/observation-category",
                "code": "social-history"
              }
            ]
          }
        ],
        "status": "final",
        "code": {
          "coding": [
            {
              "code": "11331-6",
              "display": "History of Alcohol Use",
              "system": "http://loinc.org"
            }
          ]
        },
        "effectiveDateTime": "2022-09-24",
        "valueCodeableConcept": {
          "coding": [
            {
              "code": "228274009",
              "display": "Lifetime non-drinker (finding)",
              "system": "http://snomed.info/sct"
            }
          ]
        },
        "subject": {
          "reference": "Patient/a8e4cb0a-78ee-44ff-9aa6-425d243c1a75"
        }
      },
      "request": {
        "method": "PUT",
        "url": "Observation/14ffb63a-2610-1814-6651-9aa1c8d5bb07"
      }
    },
    {
      "fullUrl": "urn:uuid:7a48c55f-79c6-cb43-232b-da9f52f27846",
      "resource": {
        "resourceType": "Observation",
        "id": "7a48c55f-79c6-cb43-232b-da9f52f27846",
        "meta": {
          "profile": [
            "http://hl7.org/fhir/us/core/StructureDefinition/us-core-observationresults"
          ],
          "source": [
            "ecr"
          ]
        },
        "identifier": [
          {
            "system": "urn:oid:1.2.840.114350.1.13.202.3.7.7.698084.19928",
            "value": "Z264"
          }
        ],
        "category": [
          {
            "coding": [
              {
                "system": "http://terminology.hl7.org/CodeSystem/observation-category",
                "code": "social-history"
              }
            ]
          }
        ],
        "status": "final",
        "code": {
          "coding": [
            {
              "code": "63504-5",
              "display": "What is the highest grade or level of school you have completed or the highest degree you have received [NHANES]",
              "system": "http://loinc.org"
            }
          ]
        },
        "effectiveDateTime": "2022-09-24",
        "valueString": "17",
        "subject": {
          "reference": "Patient/a8e4cb0a-78ee-44ff-9aa6-425d243c1a75"
        }
      },
      "request": {
        "method": "PUT",
        "url": "Observation/7a48c55f-79c6-cb43-232b-da9f52f27846"
      }
    },
    {
      "fullUrl": "urn:uuid:",
      "resource": {
        "resourceType": "Observation",
        "meta": {
          "profile": [
            "http://hl7.org/fhir/us/core/StructureDefinition/us-core-observationresults"
          ],
          "source": [
            "ecr"
          ]
        }
      },
      "request": {
        "method": "PUT",
        "url": "Observation/"
      }
    }
  ]
}
