{
  "resourceType": "Bundle",
  "type": "batch",
  "entry": [
    {
      "fullUrl": "urn:uuid:1.2.840.114350.1.13.478.3.7.8.688883.252732",
      "resource": {
        "resourceType": "Composition",
        "id": "1.2.840.114350.1.13.478.3.7.8.688883.252732",
        "meta": {
          "profile": [
            "http://hl7.org/fhir/us/ecr/StructureDefinition/eicr-composition"
          ],
          "source": [
            "ecr"
          ]
        },
        "identifier": [
          {
            "use": "official",
            "type": {
              "coding": [
                {
                  "code": "55751-2",
                  "display": "Initial Public Health Case Report",
                  "system": "http://loinc.org"
                }
              ]
            },
            "value": "5e539dbe-8abe-11ed-847f-0050561597b4",
            "assigner": {
              "display": "EPC"
            }
          }
        ],
        "extension": [
          {
            "url": "http://hl7.org/fhir/StructureDefinition/composition-clinicaldocument-versionNumber",
            "valueString": "1"
          }
        ],
        "status": "final",
        "type": {
          "coding": [
            {
              "code": "55751-2",
              "display": "Initial Public Health Case Report",
              "system": "http://loinc.org"
            }
          ]
        },
        "date": "2023-01-02T10:56:25-06:00",
        "title": "Initial Public Health Case Report",
        "confidentiality": "N",
        "section": [
          {
            "id": "b7a7ed08-af88-4a31-cc4e-8dddd58b7fc8",
            "title": "Miscellaneous Notes",
            "text": {
              "status": "generated",
              "div": "Not on file documented in this encounter"
            },
            "code": {
              "coding": [
                {
                  "code": "10164-2",
                  "display": "HISTORY OF PRESENT ILLNESS",
                  "system": "http://loinc.org"
                }
              ]
            },
            "mode": "snapshot"
          },
          {
            "id": "64E19122-8ABE-11ED-8CA0-0050561597B4",
            "title": "Immunizations",
            "text": {
              "status": "generated",
              "div": "<table><thead><tr><th>Name</th><th>Administration Dates</th><th>Next Due</th></tr></thead><tbody><tr data-id='immunization6'><td data-id='immunization6Name'>DTaP, 5 pertussis antigens vaccine (DAPTACEL)</td><td>06/15/2021</td><td></td></tr><tr data-id='immunization5'><td data-id='immunization5Name'>Hep B, adult vaccine (Engerix/Recombivax)</td><td>09/08/2020</td><td></td></tr><tr data-id='immunization4'><td data-id='immunization4Name'>SARS-COV-2 (COVID-19) RED CAP +BLUE LABEL VACCINE, MODERNA 12+YO</td><td>01/22/2021</td><td></td></tr></tbody></table>documented as of this encounter"
            },
            "code": {
              "coding": [
                {
                  "code": "11369-6",
                  "display": "History of Immunization Narrative",
                  "system": "http://loinc.org"
                }
              ]
            },
            "mode": "snapshot"
          },
          {
            "id": "651F5430-8ABE-11ED-8CA0-0050561597B4",
            "title": "Administered Medications",
            "text": {
              "status": "generated",
              "div": "Not on file documented in this encounter"
            },
            "code": {
              "coding": [
                {
                  "code": "29549-3",
                  "display": "MEDICATIONS ADMINISTERED",
                  "system": "http://loinc.org"
                }
              ]
            },
            "mode": "snapshot"
          },
          {
            "id": "eb08daad-1e00-4280-4846-4276acb00888",
            "title": "Plan of Treatment",
            "text": {
              "status": "generated",
              "div": "<table><caption>Pending Results</caption> <thead><tr><th>Name</th><th>Type</th><th>Priority</th><th>Associated Diagnoses</th><th>Date/Time</th></tr></thead><tbody><tr data-id='procedure11'><td>PCR SARS-CoV-2 and Influenza A/B</td><td>Lab</td><td>Routine</td><td></td><td>12/07/2021 4:16 PM CST</td></tr><tr data-id='procedure12'><td>PCR SARS-CoV-2 and Influenza A/B</td><td>Lab</td><td>Routine</td><td></td><td>12/07/2021 4:16 PM CST</td></tr><tr data-id='procedure13'><td>PCR SARS-CoV-2 and Influenza A/B</td><td>Lab</td><td>Routine</td><td></td><td>12/07/2021 4:16 PM CST</td></tr><tr data-id='procedure14'><td>PCR SARS-CoV-2 and Influenza A/B</td><td>Lab</td><td>Routine</td><td></td><td>12/07/2021 4:16 PM CST</td></tr><tr data-id='procedure15'><td>PCR SARS-CoV-2 and Influenza A/B</td><td>Lab</td><td>Routine</td><td></td><td>12/07/2021 4:16 PM CST</td></tr><tr data-id='procedure16'><td>PCR SARS-CoV-2 and Influenza A/B</td><td>Lab</td><td>Routine</td><td></td><td>12/07/2021 4:16 PM CST</td></tr><tr data-id='procedure17'><td>PCR SARS-CoV-2 and Influenza A/B</td><td>Lab</td><td>Routine</td><td></td><td>12/07/2021 4:16 PM CST</td></tr><tr data-id='procedure18'><td>PCR SARS-CoV-2 and Influenza A/B</td><td>Lab</td><td>Routine</td><td></td><td>12/07/2021 4:16 PM CST</td></tr><tr data-id='procedure19'><td>PCR SARS-CoV-2 and Influenza A/B</td><td>Lab</td><td>Routine</td><td></td><td>12/07/2021 4:16 PM CST</td></tr><tr data-id='procedure20'><td>PCR SARS-CoV-2 and Influenza A/B</td><td>Lab</td><td>Routine</td><td></td><td>12/07/2021 4:16 PM CST</td></tr><tr data-id='procedure21'><td>PCR SARS-CoV-2 and Influenza A/B</td><td>Lab</td><td>Routine</td><td></td><td>12/07/2021 4:16 PM CST</td></tr><tr data-id='procedure22'><td>PCR SARS-CoV-2 and Influenza A/B</td><td>Lab</td><td>Routine</td><td></td><td>12/07/2021 4:16 PM CST</td></tr><tr data-id='procedure23'><td>PCR SARS-CoV-2 and Influenza A/B</td><td>Lab</td><td>Routine</td><td></td><td>12/07/2021 4:16 PM CST</td></tr></tbody></table>documented as of this encounter"
            },
            "code": {
              "coding": [
                {
                  "code": "18776-5",
                  "display": "Plan of care note",
                  "system": "http://loinc.org"
                }
              ]
            },
            "mode": "snapshot"
          },
          {
            "id": "656AD662-8ABE-11ED-8CA0-0050561597B4",
            "title": "Problems",
            "text": {
              "status": "generated",
              "div": "<table><thead><tr><th>Active Problems</th><th>Noted Date</th></tr></thead><tbody><tr data-id='problem30'><td data-id='problem30name'>COVID toes</td><td>7/13/22</td></tr><tr data-id='problem29'><td data-id='problem29name'>Chest pain on breathing</td><td>5/26/22</td></tr><tr data-id='problem28'><td data-id='problem28name'>Type 1 diabetes</td><td>2/28/22</td></tr><tr><td data-id='problem28comment'><paragraph>Overview:</paragraph>Formatting of this note might be different from the original. <br>08/30/21 28.69 kg/m²BMI Readings from Last 1 Encounters: <br></td></tr><tr data-id='problem27'><td data-id='problem27name'>Plague pneumonia</td><td>6/16/21</td></tr><tr data-id='problem26'><td data-id='problem26name'>Absence of menstruation</td><td>6/12/18</td></tr><tr data-id='problem25'><td data-id='problem25name'>Foot callus</td><td>8/11/17</td></tr><tr><td data-id='problem25comment'><paragraph>Overview:</paragraph>Formatting of this note might be different from the original. <br>Ouch. <br></td></tr></tbody></table>documented as of this encounter (statuses as of 01/02/2023)"
            },
            "code": {
              "coding": [
                {
                  "code": "11450-4",
                  "display": "Problem list - Reported",
                  "system": "http://loinc.org"
                }
              ]
            },
            "mode": "snapshot",
            "entry": [
              {
                "display": "Problem - Foot callus",
                "reference": "Condition/74e3244b-afcc-1fd0-4cbb-864d85303dbc"
              },
              {
                "display": "Problem - Absence of menstruation",
                "reference": "Condition/85d00c53-2448-939b-80ea-c251042ef350"
              },
              {
                "display": "Problem - Plague pneumonia",
                "reference": "Condition/c6bc07dc-6be8-ff50-ac51-e096139f444d"
              },
              {
                "display": "Problem - Type 1 diabetes",
                "reference": "Condition/e47bddd9-8edd-ab04-1bc8-188ae3662beb"
              },
              {
                "display": "Problem - Chest pain on breathing",
                "reference": "Condition/694d2d3f-df71-cd20-678b-51afdae3edab"
              },
              {
                "display": "Problem - COVID toes",
                "reference": "Condition/f978ebec-b7b8-dc2e-e0fc-e4ceed3bafb5"
              }
            ]
          },
          {
            "id": "5d711639-f946-34e2-2122-7c3928afe35b",
            "title": "Reason for Visit",
            "text": {
              "status": "generated",
              "div": "Not on file"
            },
            "code": {
              "coding": [
                {
                  "code": "29299-5",
                  "display": "REASON FOR VISIT",
                  "system": "http://loinc.org"
                }
              ]
            },
            "mode": "snapshot",
            "extension": [
              {
                "url": "http://hl7.org/fhir/cda/ccda/StructureDefinition/2.16.840.1.113883.10.20.22.2.12",
                "valueString": "Not on file"
              }
            ]
          },
          {
            "id": "65909D70-8ABE-11ED-8CA0-0050561597B4",
            "title": "Results",
            "text": {
              "status": "generated",
              "div": "<ul><li data-id='Result.1.2.840.114350.1.13.478.3.7.2.798268.2061354'><caption data-id='Result.1.2.840.114350.1.13.478.3.7.2.798268.2061354.Procedure'>(ABNORMAL) CBC (04/11/2022 10:23 AM CDT)</caption><table><thead><tr><th>Component</th><th>Value</th><th>Ref Range</th><th>Test Method</th><th>Analysis Time</th><th>Performed At</th><th>Pathologist Signature</th></tr></thead><tbody><tr data-id='Result.1.2.840.114350.1.13.478.3.7.2.798268.2061354.Comp1'><td data-id='Result.1.2.840.114350.1.13.478.3.7.2.798268.2061354.Comp1Name'>White Blood Cells</td><td>10.9 (H)</td><td>3.9 - 10.7 x10(3)/mcL</td><td></td><td></td><td>VUMC CERNER LAB</td><td data-id='Result.1.2.840.114350.1.13.478.3.7.2.798268.2061354.Comp1Signature'></td></tr><tr data-id='Result.1.2.840.114350.1.13.478.3.7.2.798268.2061354.Comp2'><td data-id='Result.1.2.840.114350.1.13.478.3.7.2.798268.2061354.Comp2Name'>Red Blood Cells</td><td>4.91</td><td>4.00 - 5.50 x10(6)/mcL</td><td></td><td></td><td>VUMC CERNER LAB</td><td data-id='Result.1.2.840.114350.1.13.478.3.7.2.798268.2061354.Comp2Signature'></td></tr><tr data-id='Result.1.2.840.114350.1.13.478.3.7.2.798268.2061354.Comp3'><td data-id='Result.1.2.840.114350.1.13.478.3.7.2.798268.2061354.Comp3Name'>Hemoglobin</td><td>14.9</td><td>11.8 - 16.0 gm/dL</td><td></td><td></td><td>VUMC CERNER LAB</td><td data-id='Result.1.2.840.114350.1.13.478.3.7.2.798268.2061354.Comp3Signature'></td></tr><tr data-id='Result.1.2.840.114350.1.13.478.3.7.2.798268.2061354.Comp4'><td data-id='Result.1.2.840.114350.1.13.478.3.7.2.798268.2061354.Comp4Name'>Hematocrit</td><td>46 (H)</td><td>36 - 43 %</td><td></td><td></td><td>VUMC CERNER LAB</td><td data-id='Result.1.2.840.114350.1.13.478.3.7.2.798268.2061354.Comp4Signature'></td></tr><tr data-id='Result.1.2.840.114350.1.13.478.3.7.2.798268.2061354.Comp5'><td data-id='Result.1.2.840.114350.1.13.478.3.7.2.798268.2061354.Comp5Name'>Mean Cell Volume</td><td>93</td><td>81 - 98 fL</td><td></td><td></td><td>VUMC CERNER LAB</td><td data-id='Result.1.2.840.114350.1.13.478.3.7.2.798268.2061354.Comp5Signature'></td></tr><tr data-id='Result.1.2.840.114350.1.13.478.3.7.2.798268.2061354.Comp6'><td data-id='Result.1.2.840.114350.1.13.478.3.7.2.798268.2061354.Comp6Name'>Mean Cell Hemoglobin</td><td>30.3</td><td>27.0 - 32.0 pg</td><td></td><td></td><td>VUMC CERNER LAB</td><td data-id='Result.1.2.840.114350.1.13.478.3.7.2.798268.2061354.Comp6Signature'></td></tr><tr data-id='Result.1.2.840.114350.1.13.478.3.7.2.798268.2061354.Comp7'><td data-id='Result.1.2.840.114350.1.13.478.3.7.2.798268.2061354.Comp7Name'>Mean Cell Hemoglobin Concentration</td><td>32.7</td><td>31.0 - 35.0 gm/dL</td><td></td><td></td><td>VUMC CERNER LAB</td><td data-id='Result.1.2.840.114350.1.13.478.3.7.2.798268.2061354.Comp7Signature'></td></tr><tr data-id='Result.1.2.840.114350.1.13.478.3.7.2.798268.2061354.Comp8'><td data-id='Result.1.2.840.114350.1.13.478.3.7.2.798268.2061354.Comp8Name'>RDW SD</td><td>51.0</td><td>37.4 - 52.4 fL</td><td></td><td></td><td>VUMC CERNER LAB</td><td data-id='Result.1.2.840.114350.1.13.478.3.7.2.798268.2061354.Comp8Signature'></td></tr><tr data-id='Result.1.2.840.114350.1.13.478.3.7.2.798268.2061354.Comp9'><td data-id='Result.1.2.840.114350.1.13.478.3.7.2.798268.2061354.Comp9Name'>RDW CV</td><td>15.0 (H)</td><td>11.1 - 14.3 %</td><td></td><td></td><td>VUMC CERNER LAB</td><td data-id='Result.1.2.840.114350.1.13.478.3.7.2.798268.2061354.Comp9Signature'></td></tr><tr data-id='Result.1.2.840.114350.1.13.478.3.7.2.798268.2061354.Comp10'><td data-id='Result.1.2.840.114350.1.13.478.3.7.2.798268.2061354.Comp10Name'>Platelet</td><td>88 (L)</td><td>135 - 371 x10(3)/mcL</td><td></td><td></td><td>VUMC CERNER LAB</td><td data-id='Result.1.2.840.114350.1.13.478.3.7.2.798268.2061354.Comp10Signature'></td></tr><tr data-id='Result.1.2.840.114350.1.13.478.3.7.2.798268.2061354.Comp11'><td data-id='Result.1.2.840.114350.1.13.478.3.7.2.798268.2061354.Comp11Name'>Mean Platelet Volume</td><td>10.4</td><td>9.3 - 12.8 fL</td><td></td><td></td><td>VUMC CERNER LAB</td><td data-id='Result.1.2.840.114350.1.13.478.3.7.2.798268.2061354.Comp11Signature'></td></tr><tr data-id='Result.1.2.840.114350.1.13.478.3.7.2.798268.2061354.Comp12'><td data-id='Result.1.2.840.114350.1.13.478.3.7.2.798268.2061354.Comp12Name'>Nucleated RBC</td><td>0</td><td>0 - 0 /100 WBC</td><td></td><td></td><td>VUMC CERNER LAB</td><td data-id='Result.1.2.840.114350.1.13.478.3.7.2.798268.2061354.Comp12Signature'></td></tr><tr data-id='Result.1.2.840.114350.1.13.478.3.7.2.798268.2061354.Comp13'><td data-id='Result.1.2.840.114350.1.13.478.3.7.2.798268.2061354.Comp13Name'>Nucleated RBC Abs</td><td>0.00</td><td>0.00 - 0.00 x10(3)/mcL</td><td></td><td></td><td>VUMC CERNER LAB</td><td data-id='Result.1.2.840.114350.1.13.478.3.7.2.798268.2061354.Comp13Signature'></td></tr><tr><td>Comment: This test was performed at: Vanderbilt Tullahoma-Harton Laboratory,CLIA# 44D0309812,Donald E. Trummel, MD, Medical Director,1805 N Jackson St,Tullahoma,TN,37388,USA</td></tr></tbody></table><table><thead><tr><th>Specimen (Source)</th><th>Anatomical Location / Laterality</th><th>Collection Method / Volume</th><th>Collection Time</th><th>Received Time</th></tr></thead><tbody><tr><td data-id='Result.1.2.840.114350.1.13.478.3.7.2.798268.2061354.Specimen'>Blood</td><td></td><td></td><td>04/11/2022 10:23 AM CDT</td><td>04/11/2022 10:24 AM CDT</td></tr></tbody></table><table><thead><tr><th>Resulting Agency Comment</th></tr></thead><tbody><tr><td><paragraph data-id='Result.1.2.840.114350.1.13.478.3.7.2.798268.2061354.ResultingAgencyComment'>Ordered by DR. TEST ZTEST SR</paragraph></td></tr></tbody></table><table><thead><tr><th>Authorizing Provider</th><th>Result Type</th></tr></thead><tbody><tr><td>No Pcp</td><td>LAB BLOOD ORDERABLES</td></tr></tbody></table><table><thead><tr><th>Performing Organization</th><th>Address</th><th>City/State/ZIP Code</th><th>Phone Number</th></tr></thead><tbody><tr><td data-id='Result.1.2.840.114350.1.13.478.3.7.2.798268.2061354.PerformingLab'><paragraph>VUMC CERNER LAB</paragraph></td><td><paragraph>4605 TVC VUMC</paragraph><paragraph>1301 Medical Center Drive</paragraph></td><td><paragraph>NASHVILLE, TN 37232-5310</paragraph></td><td><paragraph>615-875-5227</paragraph></td></tr></tbody></table></li><li data-id='Result.1.2.840.114350.1.13.478.3.7.2.798268.2048488'><caption data-id='Result.1.2.840.114350.1.13.478.3.7.2.798268.2048488.Procedure'>(ABNORMAL) CBC (01/27/2022 2:39 PM CST)</caption><table><thead><tr><th>Component</th><th>Value</th><th>Ref Range</th><th>Test Method</th><th>Analysis Time</th><th>Performed At</th><th>Pathologist Signature</th></tr></thead><tbody><tr data-id='Result.1.2.840.114350.1.13.478.3.7.2.798268.2048488.Comp1'><td data-id='Result.1.2.840.114350.1.13.478.3.7.2.798268.2048488.Comp1Name'>White Blood Cells</td><td>18.7 (H)</td><td>3.9 - 10.7 x10(3)/mcL</td><td></td><td></td><td>VUMC CERNER LAB</td><td data-id='Result.1.2.840.114350.1.13.478.3.7.2.798268.2048488.Comp1Signature'></td></tr><tr data-id='Result.1.2.840.114350.1.13.478.3.7.2.798268.2048488.Comp2'><td data-id='Result.1.2.840.114350.1.13.478.3.7.2.798268.2048488.Comp2Name'>Red Blood Cells</td><td>2.81 (L)</td><td>4.00 - 5.50 x10(6)/mcL</td><td></td><td></td><td>VUMC CERNER LAB</td><td data-id='Result.1.2.840.114350.1.13.478.3.7.2.798268.2048488.Comp2Signature'></td></tr><tr data-id='Result.1.2.840.114350.1.13.478.3.7.2.798268.2048488.Comp3'><td data-id='Result.1.2.840.114350.1.13.478.3.7.2.798268.2048488.Comp3Name'>Hemoglobin</td><td>9.2 (L)</td><td>11.8 - 16.0 gm/dL</td><td></td><td></td><td>VUMC CERNER LAB</td><td data-id='Result.1.2.840.114350.1.13.478.3.7.2.798268.2048488.Comp3Signature'></td></tr><tr data-id='Result.1.2.840.114350.1.13.478.3.7.2.798268.2048488.Comp4'><td data-id='Result.1.2.840.114350.1.13.478.3.7.2.798268.2048488.Comp4Name'>Hematocrit</td><td>30 (L)</td><td>36 - 43 %</td><td></td><td></td><td>VUMC CERNER LAB</td><td data-id='Result.1.2.840.114350.1.13.478.3.7.2.798268.2048488.Comp4Signature'></td></tr><tr data-id='Result.1.2.840.114350.1.13.478.3.7.2.798268.2048488.Comp5'><td data-id='Result.1.2.840.114350.1.13.478.3.7.2.798268.2048488.Comp5Name'>Mean Cell Volume</td><td>106 (H)</td><td>81 - 98 fL</td><td></td><td></td><td>VUMC CERNER LAB</td><td data-id='Result.1.2.840.114350.1.13.478.3.7.2.798268.2048488.Comp5Signature'></td></tr><tr data-id='Result.1.2.840.114350.1.13.478.3.7.2.798268.2048488.Comp6'><td data-id='Result.1.2.840.114350.1.13.478.3.7.2.798268.2048488.Comp6Name'>Mean Cell Hemoglobin</td><td>32.7 (H)</td><td>27.0 - 32.0 pg</td><td></td><td></td><td>VUMC CERNER LAB</td><td data-id='Result.1.2.840.114350.1.13.478.3.7.2.798268.2048488.Comp6Signature'></td></tr><tr data-id='Result.1.2.840.114350.1.13.478.3.7.2.798268.2048488.Comp7'><td data-id='Result.1.2.840.114350.1.13.478.3.7.2.798268.2048488.Comp7Name'>Mean Cell Hemoglobin Concentration</td><td>30.9 (L)</td><td>31.0 - 35.0 gm/dL</td><td></td><td></td><td>VUMC CERNER LAB</td><td data-id='Result.1.2.840.114350.1.13.478.3.7.2.798268.2048488.Comp7Signature'></td></tr><tr data-id='Result.1.2.840.114350.1.13.478.3.7.2.798268.2048488.Comp8'><td data-id='Result.1.2.840.114350.1.13.478.3.7.2.798268.2048488.Comp8Name'>RDW SD</td><td>57.2 (H)</td><td>37.4 - 52.4 fL</td><td></td><td></td><td>VUMC CERNER LAB</td><td data-id='Result.1.2.840.114350.1.13.478.3.7.2.798268.2048488.Comp8Signature'></td></tr><tr data-id='Result.1.2.840.114350.1.13.478.3.7.2.798268.2048488.Comp9'><td data-id='Result.1.2.840.114350.1.13.478.3.7.2.798268.2048488.Comp9Name'>RDW CV</td><td>14.6 (H)</td><td>11.1 - 14.3 %</td><td></td><td></td><td>VUMC CERNER LAB</td><td data-id='Result.1.2.840.114350.1.13.478.3.7.2.798268.2048488.Comp9Signature'></td></tr><tr data-id='Result.1.2.840.114350.1.13.478.3.7.2.798268.2048488.Comp10'><td data-id='Result.1.2.840.114350.1.13.478.3.7.2.798268.2048488.Comp10Name'>Platelet</td><td>123 (L)</td><td>135 - 371 x10(3)/mcL</td><td></td><td></td><td>VUMC CERNER LAB</td><td data-id='Result.1.2.840.114350.1.13.478.3.7.2.798268.2048488.Comp10Signature'></td></tr><tr data-id='Result.1.2.840.114350.1.13.478.3.7.2.798268.2048488.Comp11'><td data-id='Result.1.2.840.114350.1.13.478.3.7.2.798268.2048488.Comp11Name'>Mean Platelet Volume</td><td>10.8</td><td>9.3 - 12.8 fL</td><td></td><td></td><td>VUMC CERNER LAB</td><td data-id='Result.1.2.840.114350.1.13.478.3.7.2.798268.2048488.Comp11Signature'></td></tr><tr data-id='Result.1.2.840.114350.1.13.478.3.7.2.798268.2048488.Comp12'><td data-id='Result.1.2.840.114350.1.13.478.3.7.2.798268.2048488.Comp12Name'>Nucleated RBC</td><td>0</td><td>0 - 0 /100 WBC</td><td></td><td></td><td>VUMC CERNER LAB</td><td data-id='Result.1.2.840.114350.1.13.478.3.7.2.798268.2048488.Comp12Signature'></td></tr><tr data-id='Result.1.2.840.114350.1.13.478.3.7.2.798268.2048488.Comp13'><td data-id='Result.1.2.840.114350.1.13.478.3.7.2.798268.2048488.Comp13Name'>Nucleated RBC Abs</td><td>0.05 (H)</td><td>0.00 - 0.00 x10(3)/mcL</td><td></td><td></td><td>VUMC CERNER LAB</td><td data-id='Result.1.2.840.114350.1.13.478.3.7.2.798268.2048488.Comp13Signature'></td></tr><tr><td>Comment: This test was performed at: Vanderbilt Tullahoma-Harton Laboratory,CLIA# 44D0309812,Donald E. Trummel, MD, Medical Director,1805 N Jackson St,Tullahoma,TN,37388,USA</td></tr></tbody></table><table><thead><tr><th>Specimen (Source)</th><th>Anatomical Location / Laterality</th><th>Collection Method / Volume</th><th>Collection Time</th><th>Received Time</th></tr></thead><tbody><tr><td data-id='Result.1.2.840.114350.1.13.478.3.7.2.798268.2048488.Specimen'>Blood</td><td></td><td></td><td>01/27/2022 2:39 PM CST</td><td>01/27/2022 2:41 PM CST</td></tr></tbody></table><table><thead><tr><th>Resulting Agency Comment</th></tr></thead><tbody><tr><td><paragraph data-id='Result.1.2.840.114350.1.13.478.3.7.2.798268.2048488.ResultingAgencyComment'>Ordered by DR. TEST ZTEST SR</paragraph></td></tr></tbody></table><table><thead><tr><th>Authorizing Provider</th><th>Result Type</th></tr></thead><tbody><tr><td>No Pcp</td><td>LAB BLOOD ORDERABLES</td></tr></tbody></table><table><thead><tr><th>Performing Organization</th><th>Address</th><th>City/State/ZIP Code</th><th>Phone Number</th></tr></thead><tbody><tr><td data-id='Result.1.2.840.114350.1.13.478.3.7.2.798268.2048488.PerformingLab'><paragraph>VUMC CERNER LAB</paragraph></td><td><paragraph>4605 TVC VUMC</paragraph><paragraph>1301 Medical Center Drive</paragraph></td><td><paragraph>NASHVILLE, TN 37232-5310</paragraph></td><td><paragraph>615-875-5227</paragraph></td></tr></tbody></table></li><li data-id='Result.1.2.840.114350.1.13.478.3.7.2.798268.2032342'><caption data-id='Result.1.2.840.114350.1.13.478.3.7.2.798268.2032342.Procedure'>(ABNORMAL) CBC (12/08/2021 9:55 AM CST)</caption><table><thead><tr><th>Component</th><th>Value</th><th>Ref Range</th><th>Test Method</th><th>Analysis Time</th><th>Performed At</th><th>Pathologist Signature</th></tr></thead><tbody><tr data-id='Result.1.2.840.114350.1.13.478.3.7.2.798268.2032342.Comp1'><td data-id='Result.1.2.840.114350.1.13.478.3.7.2.798268.2032342.Comp1Name'>White Blood Cells</td><td>19.3 (H)</td><td>3.9 - 10.7 x10(3)/mcL</td><td></td><td></td><td>VUMC CERNER LAB</td><td data-id='Result.1.2.840.114350.1.13.478.3.7.2.798268.2032342.Comp1Signature'></td></tr><tr data-id='Result.1.2.840.114350.1.13.478.3.7.2.798268.2032342.Comp2'><td data-id='Result.1.2.840.114350.1.13.478.3.7.2.798268.2032342.Comp2Name'>Red Blood Cells</td><td>2.28 (L)</td><td>4.00 - 5.50 x10(6)/mcL</td><td></td><td></td><td>VUMC CERNER LAB</td><td data-id='Result.1.2.840.114350.1.13.478.3.7.2.798268.2032342.Comp2Signature'></td></tr><tr data-id='Result.1.2.840.114350.1.13.478.3.7.2.798268.2032342.Comp3'><td data-id='Result.1.2.840.114350.1.13.478.3.7.2.798268.2032342.Comp3Name'>Hemoglobin</td><td>7.1 (L)</td><td>11.8 - 16.0 gm/dL</td><td></td><td></td><td>VUMC CERNER LAB</td><td data-id='Result.1.2.840.114350.1.13.478.3.7.2.798268.2032342.Comp3Signature'></td></tr><tr data-id='Result.1.2.840.114350.1.13.478.3.7.2.798268.2032342.Comp4'><td data-id='Result.1.2.840.114350.1.13.478.3.7.2.798268.2032342.Comp4Name'>Hematocrit</td><td>22 (L)</td><td>36 - 43 %</td><td></td><td></td><td>VUMC CERNER LAB</td><td data-id='Result.1.2.840.114350.1.13.478.3.7.2.798268.2032342.Comp4Signature'></td></tr><tr data-id='Result.1.2.840.114350.1.13.478.3.7.2.798268.2032342.Comp5'><td data-id='Result.1.2.840.114350.1.13.478.3.7.2.798268.2032342.Comp5Name'>Mean Cell Volume</td><td>97</td><td>81 - 98 fL</td><td></td><td></td><td>VUMC CERNER LAB</td><td data-id='Result.1.2.840.114350.1.13.478.3.7.2.798268.2032342.Comp5Signature'></td></tr><tr data-id='Result.1.2.840.114350.1.13.478.3.7.2.798268.2032342.Comp6'><td data-id='Result.1.2.840.114350.1.13.478.3.7.2.798268.2032342.Comp6Name'>Mean Cell Hemoglobin</td><td>31.1</td><td>27.0 - 32.0 pg</td><td></td><td></td><td>VUMC CERNER LAB</td><td data-id='Result.1.2.840.114350.1.13.478.3.7.2.798268.2032342.Comp6Signature'></td></tr><tr data-id='Result.1.2.840.114350.1.13.478.3.7.2.798268.2032342.Comp7'><td data-id='Result.1.2.840.114350.1.13.478.3.7.2.798268.2032342.Comp7Name'>Mean Cell Hemoglobin Concentration</td><td>32.0</td><td>31.0 - 35.0 gm/dL</td><td></td><td></td><td>VUMC CERNER LAB</td><td data-id='Result.1.2.840.114350.1.13.478.3.7.2.798268.2032342.Comp7Signature'></td></tr><tr data-id='Result.1.2.840.114350.1.13.478.3.7.2.798268.2032342.Comp8'><td data-id='Result.1.2.840.114350.1.13.478.3.7.2.798268.2032342.Comp8Name'>RDW SD</td><td>47.8</td><td>37.4 - 52.4 fL</td><td></td><td></td><td>VUMC CERNER LAB</td><td data-id='Result.1.2.840.114350.1.13.478.3.7.2.798268.2032342.Comp8Signature'></td></tr><tr data-id='Result.1.2.840.114350.1.13.478.3.7.2.798268.2032342.Comp9'><td data-id='Result.1.2.840.114350.1.13.478.3.7.2.798268.2032342.Comp9Name'>RDW CV</td><td>13.4</td><td>11.1 - 14.3 %</td><td></td><td></td><td>VUMC CERNER LAB</td><td data-id='Result.1.2.840.114350.1.13.478.3.7.2.798268.2032342.Comp9Signature'></td></tr><tr data-id='Result.1.2.840.114350.1.13.478.3.7.2.798268.2032342.Comp10'><td data-id='Result.1.2.840.114350.1.13.478.3.7.2.798268.2032342.Comp10Name'>Platelet</td><td>209</td><td>135 - 371 x10(3)/mcL</td><td></td><td></td><td>VUMC CERNER LAB</td><td data-id='Result.1.2.840.114350.1.13.478.3.7.2.798268.2032342.Comp10Signature'></td></tr><tr data-id='Result.1.2.840.114350.1.13.478.3.7.2.798268.2032342.Comp11'><td data-id='Result.1.2.840.114350.1.13.478.3.7.2.798268.2032342.Comp11Name'>Mean Platelet Volume</td><td>10.2</td><td>9.3 - 12.8 fL</td><td></td><td></td><td>VUMC CERNER LAB</td><td data-id='Result.1.2.840.114350.1.13.478.3.7.2.798268.2032342.Comp11Signature'></td></tr><tr data-id='Result.1.2.840.114350.1.13.478.3.7.2.798268.2032342.Comp12'><td data-id='Result.1.2.840.114350.1.13.478.3.7.2.798268.2032342.Comp12Name'>Nucleated RBC</td><td>0</td><td>0 - 0 /100 WBC</td><td></td><td></td><td>VUMC CERNER LAB</td><td data-id='Result.1.2.840.114350.1.13.478.3.7.2.798268.2032342.Comp12Signature'></td></tr><tr data-id='Result.1.2.840.114350.1.13.478.3.7.2.798268.2032342.Comp13'><td data-id='Result.1.2.840.114350.1.13.478.3.7.2.798268.2032342.Comp13Name'>Nucleated RBC Abs</td><td>0.00</td><td>0.00 - 0.00 x10(3)/mcL</td><td></td><td></td><td>VUMC CERNER LAB</td><td data-id='Result.1.2.840.114350.1.13.478.3.7.2.798268.2032342.Comp13Signature'></td></tr><tr><td>Comment: This test was performed at: Vanderbilt Tullahoma-Harton Laboratory,CLIA# 44D0309812,Donald E. Trummel, MD, Medical Director,1805 N Jackson St,Tullahoma,TN,37388,USA</td></tr></tbody></table><table><thead><tr><th>Specimen (Source)</th><th>Anatomical Location / Laterality</th><th>Collection Method / Volume</th><th>Collection Time</th><th>Received Time</th></tr></thead><tbody><tr><td data-id='Result.1.2.840.114350.1.13.478.3.7.2.798268.2032342.Specimen'>Blood</td><td></td><td></td><td>12/08/2021 9:55 AM CST</td><td>12/08/2021 9:56 AM CST</td></tr></tbody></table><table><thead><tr><th>Resulting Agency Comment</th></tr></thead><tbody><tr><td><paragraph data-id='Result.1.2.840.114350.1.13.478.3.7.2.798268.2032342.ResultingAgencyComment'>Ordered by DR. TEST ZTEST SR</paragraph></td></tr></tbody></table><table><thead><tr><th>Authorizing Provider</th><th>Result Type</th></tr></thead><tbody><tr><td>No Pcp</td><td>LAB BLOOD ORDERABLES</td></tr></tbody></table><table><thead><tr><th>Performing Organization</th><th>Address</th><th>City/State/ZIP Code</th><th>Phone Number</th></tr></thead><tbody><tr><td data-id='Result.1.2.840.114350.1.13.478.3.7.2.798268.2032342.PerformingLab'><paragraph>VUMC CERNER LAB</paragraph></td><td><paragraph>4605 TVC VUMC</paragraph><paragraph>1301 Medical Center Drive</paragraph></td><td><paragraph>NASHVILLE, TN 37232-5310</paragraph></td><td><paragraph>615-875-5227</paragraph></td></tr></tbody></table></li><li data-id='Result.1.2.840.114350.1.13.478.3.7.2.798268.2032330'><caption data-id='Result.1.2.840.114350.1.13.478.3.7.2.798268.2032330.Procedure'>(ABNORMAL) PCR SARS-CoV-2 and Influenza A/B (12/07/2021 4:16 PM CST)</caption><table><thead><tr><th>Component</th><th>Value</th><th>Ref Range</th><th>Test Method</th><th>Analysis Time</th><th>Performed At</th><th>Pathologist Signature</th></tr></thead><tbody><tr data-id='Result.1.2.840.114350.1.13.478.3.7.2.798268.2032330.Comp1'><td data-id='Result.1.2.840.114350.1.13.478.3.7.2.798268.2032330.Comp1Name'>SARS-CoV-2 Nucleic Acid (Result)</td><td>Not Detected</td><td>Not Detected</td><td></td><td></td><td>VUMC CERNER LAB</td><td data-id='Result.1.2.840.114350.1.13.478.3.7.2.798268.2032330.Comp1Signature'></td></tr><tr><td>Comment: <br>Results are generated using nucleic acid amplification tests that are labeled Emergency Use Only by the U.S FDA.A detected result is positive and indicates the presence of the virus in the sample. A not detected result indicates that the test did not detect the virus in the sample. <br></td></tr><tr data-id='Result.1.2.840.114350.1.13.478.3.7.2.798268.2032330.Comp2'><td data-id='Result.1.2.840.114350.1.13.478.3.7.2.798268.2032330.Comp2Name'>Influenza A PCR (Result)</td><td>Not Detected</td><td>Not Detected</td><td></td><td></td><td>VUMC CERNER LAB</td><td data-id='Result.1.2.840.114350.1.13.478.3.7.2.798268.2032330.Comp2Signature'></td></tr><tr data-id='Result.1.2.840.114350.1.13.478.3.7.2.798268.2032330.Comp3'><td data-id='Result.1.2.840.114350.1.13.478.3.7.2.798268.2032330.Comp3Name'>Influenza B PCR (Result)</td><td>Detected (A)</td><td>Not Detected</td><td></td><td></td><td>VUMC CERNER LAB</td><td data-id='Result.1.2.840.114350.1.13.478.3.7.2.798268.2032330.Comp3Signature'></td></tr><tr data-id='Result.1.2.840.114350.1.13.478.3.7.2.798268.2032330.Comp4'><td data-id='Result.1.2.840.114350.1.13.478.3.7.2.798268.2032330.Comp4Name'>Influenza SARS-CoV-2 (Specimen Type)</td><td>Nasopharynx</td><td></td><td></td><td></td><td>VUMC CERNER LAB</td><td data-id='Result.1.2.840.114350.1.13.478.3.7.2.798268.2032330.Comp4Signature'></td></tr></tbody></table><table><thead><tr><th>Specimen (Source)</th><th>Anatomical Location / Laterality</th><th>Collection Method / Volume</th><th>Collection Time</th><th>Received Time</th></tr></thead><tbody><tr><td data-id='Result.1.2.840.114350.1.13.478.3.7.2.798268.2032330.Specimen'>Nasopharynx</td><td></td><td></td><td>12/07/2021 4:16 PM CST</td><td>12/07/2021 4:17 PM CST</td></tr></tbody></table><table><thead><tr><th>Resulting Agency Comment</th></tr></thead><tbody><tr><td><paragraph data-id='Result.1.2.840.114350.1.13.478.3.7.2.798268.2032330.ResultingAgencyComment'>Ordered by MD, JONATHAN E SCHMITZ MD,</paragraph></td></tr></tbody></table><table><thead><tr><th>Authorizing Provider</th><th>Result Type</th></tr></thead><tbody><tr><td>No Pcp</td><td>LAB BODY FLUIDS AND STOOLS ORDERABLES</td></tr></tbody></table><table><thead><tr><th>Performing Organization</th><th>Address</th><th>City/State/ZIP Code</th><th>Phone Number</th></tr></thead><tbody><tr><td data-id='Result.1.2.840.114350.1.13.478.3.7.2.798268.2032330.PerformingLab'><paragraph>VUMC CERNER LAB</paragraph></td><td><paragraph>4605 TVC VUMC</paragraph><paragraph>1301 Medical Center Drive</paragraph></td><td><paragraph>NASHVILLE, TN 37232-5310</paragraph></td><td><paragraph>615-875-5227</paragraph></td></tr></tbody></table></li></ul>documented in this encounter"
            },
            "code": {
              "coding": [
                {
                  "code": "30954-2",
                  "display": "Relevant diagnostic tests/laboratory data Narrative",
                  "system": "http://loinc.org"
                }
              ]
            },
            "mode": "snapshot",
            "entry": [
              {
                "display": "SARS-CoV-2 Nucleic Acid (Result)",
                "reference": "Observation/e8891992-3e7b-efbd-fc4e-e7da7a2ff1be"
              },
              {
                "display": "Influenza A PCR (Result)",
                "reference": "Observation/b88452c1-d070-0797-d5e6-843ef9ef7317"
              },
              {
                "display": "Influenza B PCR (Result)",
                "reference": "Observation/da885e41-73e5-98af-f3b1-14e924129a02"
              },
              {
                "display": "Lab Interpretation",
                "reference": "Observation/64124534-e4cf-5bb7-9eaa-8842e50daac3"
              },
              {
                "display": "White Blood Cells",
                "reference": "Observation/63dc29b0-568b-ea78-47fa-802087669758"
              },
              {
                "display": "Red Blood Cells",
                "reference": "Observation/6e9e3ca1-e733-21ad-3275-cf0465338e64"
              },
              {
                "display": "Hemoglobin",
                "reference": "Observation/dfcc7809-3d78-51fd-01da-4ddad27afdc6"
              },
              {
                "display": "Hematocrit",
                "reference": "Observation/fbd682f7-a0c5-cc58-529c-ecbd8f9a153a"
              },
              {
                "display": "Mean Cell Volume",
                "reference": "Observation/f01e514c-937b-42ec-10c0-d9fe36a1aeeb"
              },
              {
                "display": "Mean Cell Hemoglobin",
                "reference": "Observation/fa87f9b4-c14e-658f-5995-7b2cd299f284"
              },
              {
                "display": "Mean Cell Hemoglobin Concentration",
                "reference": "Observation/071af44f-0486-b405-07ab-29b2c3341928"
              },
              {
                "display": "RDW SD",
                "reference": "Observation/96cd0c32-377e-dda9-ed4b-4cb070d72485"
              },
              {
                "display": "RDW CV",
                "reference": "Observation/bc0ecc5c-b599-f30a-0b48-f25c4d22befa"
              },
              {
                "display": "Platelet",
                "reference": "Observation/4f741ec7-b8b2-3e4c-68c7-0f2e1b44a1f8"
              },
              {
                "display": "Mean Platelet Volume",
                "reference": "Observation/8836083b-0fcb-6948-e2da-5bd57c68799d"
              },
              {
                "display": "Nucleated RBC",
                "reference": "Observation/675e472b-f894-3eed-3f2e-d605c200e09c"
              },
              {
                "display": "Nucleated RBC Abs",
                "reference": "Observation/37196d63-2634-d19e-4406-dcdd35542713"
              },
              {
                "display": "Lab Interpretation",
                "reference": "Observation/057167fd-1ba9-b13c-7ef7-49c0ac6d11bd"
              },
              {
                "display": "White Blood Cells",
                "reference": "Observation/08bebd10-46c7-afaa-7579-db7dbcf67199"
              },
              {
                "display": "Red Blood Cells",
                "reference": "Observation/bcb610db-f86f-d026-b113-d206c4f30661"
              },
              {
                "display": "Hemoglobin",
                "reference": "Observation/d048cb3b-5457-e303-526b-d281d99da388"
              },
              {
                "display": "Hematocrit",
                "reference": "Observation/bc7d40f8-005a-9d77-60b3-8a5de7f72dab"
              },
              {
                "display": "Mean Cell Volume",
                "reference": "Observation/6e3525ee-c28d-7222-49bb-e6c6f9030cd5"
              },
              {
                "display": "Mean Cell Hemoglobin",
                "reference": "Observation/f12504a8-e1a6-c17d-a1aa-cbc7a012017f"
              },
              {
                "display": "Mean Cell Hemoglobin Concentration",
                "reference": "Observation/f1c7216a-d26d-6023-6d34-56860d66ce87"
              },
              {
                "display": "RDW SD",
                "reference": "Observation/6d7f8523-8586-3a09-f059-d4d6899a907e"
              },
              {
                "display": "RDW CV",
                "reference": "Observation/a502ab3e-d552-a69c-5075-1c35b6903a02"
              },
              {
                "display": "Platelet",
                "reference": "Observation/f6ecbbf1-31de-a5ac-a7bc-5da5d3870342"
              },
              {
                "display": "Mean Platelet Volume",
                "reference": "Observation/1aa7f990-3e04-ba40-a098-08c3a4ffe8cb"
              },
              {
                "display": "Nucleated RBC",
                "reference": "Observation/8ba6faca-d990-a28e-c639-4b376b0c4d59"
              },
              {
                "display": "Nucleated RBC Abs",
                "reference": "Observation/57c990a8-2417-9e93-7b38-55c92b5996f2"
              },
              {
                "display": "Lab Interpretation",
                "reference": "Observation/7fc6dad0-95d5-2383-9c4d-506d2a74cdf5"
              },
              {
                "display": "White Blood Cells",
                "reference": "Observation/178491a0-df27-4f61-6d22-1d94218997ae"
              },
              {
                "display": "Red Blood Cells",
                "reference": "Observation/c74b6ad4-eefe-0802-be9b-99637fc58970"
              },
              {
                "display": "Hemoglobin",
                "reference": "Observation/391633e4-a2d6-01d8-52de-b458d6da5acb"
              },
              {
                "display": "Hematocrit",
                "reference": "Observation/1b4145f2-0c77-1a84-02c5-1affbc4a5b79"
              },
              {
                "display": "Mean Cell Volume",
                "reference": "Observation/a5cb1603-ea38-327b-2bb1-f0f42e1e3e03"
              },
              {
                "display": "Mean Cell Hemoglobin",
                "reference": "Observation/6c6aee8f-cd9f-1886-d125-e4e4c21d38ef"
              },
              {
                "display": "Mean Cell Hemoglobin Concentration",
                "reference": "Observation/1a3992c8-4357-d0b6-8198-a01c97810cd0"
              },
              {
                "display": "RDW SD",
                "reference": "Observation/27ebd947-6849-8baf-9cc7-2e66c0bd00c5"
              },
              {
                "display": "RDW CV",
                "reference": "Observation/06bc25f5-a4d7-c0a5-fc83-528cd3f3393f"
              },
              {
                "display": "Platelet",
                "reference": "Observation/bd6f0850-53f6-b52b-2d2c-afd1959a4753"
              },
              {
                "display": "Mean Platelet Volume",
                "reference": "Observation/df0d53b4-b6e6-d2cc-cbad-e14888d2c182"
              },
              {
                "display": "Nucleated RBC",
                "reference": "Observation/2ba602cd-1684-1b1b-c282-dda3d3a3fc8f"
              },
              {
                "display": "Nucleated RBC Abs",
                "reference": "Observation/eaf12bb3-c230-343c-ab8c-0a0c4348c8ff"
              },
              {
                "display": "Lab Interpretation",
                "reference": "Observation/cb9681f4-ec4b-b7f9-974f-d3872cafa9c4"
              }
            ]
          },
          {
            "id": "97095def-324e-2339-a3f9-c286a16855fe",
            "title": "Social History",
            "text": {
              "status": "generated",
              "div": "<table data-id='sochist34'><thead><tr><th>Tobacco Use</th><th>Types</th><th>Packs/Day</th><th>Years Used</th><th>Date</th></tr></thead><tbody><tr><td>Smoking Tobacco: Never Assessed</td><td></td><td data-id='sochist34packsperday'></td><td></td><td></td></tr></tbody></table><table><thead><tr><th>Sex Assigned at Birth</th><th>Date Recorded</th></tr></thead><tbody><tr data-id='BirthSex35'><td data-id='BirthSex35Value'>Not on file</td><td></td></tr></tbody></table>documented as of this encounter"
            },
            "code": {
              "coding": [
                {
                  "code": "29762-2",
                  "display": "Social history Narrative",
                  "system": "http://loinc.org"
                }
              ]
            },
            "mode": "snapshot"
          },
          {
            "id": "e3681ddc-ca6d-4d4d-57fc-69ca7533c76e",
            "title": "Encounter Details",
            "text": {
              "status": "generated",
              "div": "<table><thead><tr><th>Date</th><th>Type</th><th>Department</th><th>Care Team</th><th>Description</th></tr></thead><tbody><tr data-id='encounter36'><td>10/27/21</td><td data-id='encounter36type'>Orders Only</td><td><paragraph>Vanderbilt University Adult Hospital</paragraph><paragraph>1211 Medical Center Dr</paragraph><paragraph>6 Critical Care Tower</paragraph><paragraph>Nashville, TN 37232</paragraph><paragraph>615-322-5000</paragraph></td><td><paragraph>Inpatient, Nurse, RN</paragraph></td><td></td></tr></tbody></table>"
            },
            "code": {
              "coding": [
                {
                  "code": "46240-8",
                  "display": "History of Hospitalizations+Outpatient visits Narrative",
                  "system": "http://loinc.org"
                }
              ]
            },
            "mode": "snapshot"
          },
          {
            "id": "5716880d-297e-92ee-31cd-b131732f2d47",
            "title": "Reportability Response Information Section",
            "text": {
              "status": "generated",
              "div": "<div xmlns=\"http://www.w3.org/1999/xhtml\">Reportability Response Information Section</div>"
            },
            "extension": [
              {
                "url": "http://hl7.org/fhir/us/ecr/StructureDefinition/rr-composition",
                "valueIdentifier": {
                  "use": "official",
                  "type": {
                    "coding": [
                      {
                        "code": "88085-6",
                        "display": "Reportability response report Document Public health",
                        "system": "http://loinc.org"
                      }
                    ]
                  },
                  "value": "0f36ece8-a3d1-4049-b7b0-9d296c9fe18f"
                }
              },
              {
                "url": "http://hl7.org/fhir/us/ecr/StructureDefinition/rr-eicr-processing-status-extension",
                "valueCodeableConcept": {
                  "coding": [
                    {
                      "code": "RRVS19",
                      "display": "eICR processed",
                      "system": "urn:oid:2.16.840.1.114222.4.5.274"
                    }
                  ]
                }
              }
            ],
            "code": {
              "coding": [
                {
                  "code": "88085-6",
                  "display": "Reportability response report Document Public health",
                  "system": "http://loinc.org"
                }
              ]
            },
            "entry": [
              {
                "display": "Relevant Reportable Condition Observation - Disease caused by severe acute respiratory syndrome coronavirus 2 (disorder)",
                "reference": "Observation/1f7899f5-7b71-459a-8638-43a985952098"
              },
              {
                "display": "Relevant Reportable Condition Observation - Plague (disorder)",
                "reference": "Observation/ac693c84-dc85-45c0-8e90-86c1b15b07cf"
              }
            ]
          }
        ],
        "subject": {
          "reference": "Patient/1306b864-69fe-41b8-93e2-0735de8637d6"
        },
        "encounter": {
          "reference": "Encounter/685ebb48-a4d7-22a7-5a07-a8e42ac8f78b"
        },
        "custodian": {
          "reference": "Organization/d319a926-0eb3-5847-3b21-db8b778b4f07"
        },
        "author": [
          {
            "reference": "Practitioner/550b9626-bc9e-7d6b-c5d8-e41c2000ab85"
          },
          {
            "reference": "Device/2223e92a-58eb-e5f3-fb29-9d540c657fde"
          }
        ]
      },
      "request": {
        "method": "PUT",
        "url": "Composition/1.2.840.114350.1.13.478.3.7.8.688883.252732"
      }
    },
    {
      "fullUrl": "urn:uuid:685ebb48-a4d7-22a7-5a07-a8e42ac8f78b",
      "resource": {
        "resourceType": "Encounter",
        "id": "685ebb48-a4d7-22a7-5a07-a8e42ac8f78b",
        "status": "unknown",
        "class": {
          "code": "AMB",
          "display": "Ambulatory",
          "system": "urn:oid:2.16.840.1.113883.5.4"
        },
        "identifier": [
          {
            "system": "urn:oid:1.2.840.114350.1.13.478.3.7.3.698084.8",
            "value": "1800200437857"
          }
        ],
        "period": {
          "start": "2021-10-27",
          "end": "2021-10-27"
        },
        "subject": {
          "reference": "Patient/1306b864-69fe-41b8-93e2-0735de8637d6"
        },
        "location": [
          {
            "id": "1.2.840.114350.1.13.478.3.7.2.686980",
            "location": {
              "reference": "Location/7f9c123a-0db6-d0bc-8e6a-bc55196548dd",
              "display": "Vanderbilt University Adult Hospital"
            },
            "extension": [
              {
                "url": "http://build.fhir.org/ig/HL7/case-reporting/StructureDefinition-us-ph-location-definitions.html#Location.type",
                "valueCodeableConcept": {
                  "coding": [
                    {
                      "code": "1031-4",
                      "display": "Neurosurgical Critical Care",
                      "system": "urn:oid:2.16.840.1.113883.6.259"
                    }
                  ]
                }
              }
            ]
          }
        ],
        "participant": [
          {
            "type": [
              {
                "coding": [
                  {
                    "system": "http://terminology.hl7.org/CodeSystem/v3-ParticipationType",
                    "code": "ATND"
                  }
                ]
              }
            ],
            "individual": {
              "reference": "Practitioner/79842b6e-724b-8d57-dd2a-8d4b915f0558"
            }
          }
        ],
        "meta": {
          "source": [
            "ecr"
          ]
        }
      },
      "request": {
        "method": "PUT",
        "url": "Encounter/685ebb48-a4d7-22a7-5a07-a8e42ac8f78b"
      }
    },
    {
      "fullUrl": "urn:uuid:7f9c123a-0db6-d0bc-8e6a-bc55196548dd",
      "resource": {
        "resourceType": "Location",
        "id": "7f9c123a-0db6-d0bc-8e6a-bc55196548dd",
        "identifier": [
          {
            "value": "1.2.840.114350.1.13.478.3.7.2.686980"
          }
        ],
        "name": "Vanderbilt University Adult Hospital",
        "address": {
          "use": "work",
          "line": [
            "1211 Medical Center Dr",
            "6 Critical Care Tower"
          ],
          "city": "Nashville",
          "state": "TN",
          "postalCode": "37232"
        },
        "type": [
          {
            "coding": [
              {
                "code": "1031-4",
                "display": "Neurosurgical Critical Care",
                "system": "urn:oid:2.16.840.1.113883.6.259"
              }
            ]
          }
        ],
        "meta": {
          "source": [
            "ecr"
          ]
        }
      },
      "request": {
        "method": "PUT",
        "url": "Location/7f9c123a-0db6-d0bc-8e6a-bc55196548dd"
      }
    },
    {
      "fullUrl": "urn:uuid:79842b6e-724b-8d57-dd2a-8d4b915f0558",
      "resource": {
        "resourceType": "Practitioner",
        "id": "79842b6e-724b-8d57-dd2a-8d4b915f0558",
        "meta": {
          "profile": [
            "http://hl7.org/fhir/us/core/StructureDefinition/us-core-practitioner"
          ],
          "source": [
            "ecr"
          ]
        },
        "extension": [
          {
            "url": "http://hl7.org/fhir/StructureDefinition/_datatype",
            "valueString": "Responsible Party"
          }
        ],
        "name": [
          {
            "use": "usual",
            "text": "Vanderbilt University Medical Center"
          }
        ],
        "address": [
          {
            "use": "work",
            "line": [
              "3401 West End Ave"
            ],
            "city": "NASHVILLE",
            "state": "TN",
            "country": "USA",
            "postalCode": "37203",
            "district": "DAVIDSON"
          }
        ]
      },
      "request": {
        "method": "PUT",
        "url": "Practitioner/79842b6e-724b-8d57-dd2a-8d4b915f0558"
      }
    },
    {
      "fullUrl": "urn:uuid:f87de327-7272-42ac-012d-58904caf7ef1",
      "resource": {
        "resourceType": "Organization",
        "id": "f87de327-7272-42ac-012d-58904caf7ef1",
        "meta": {
          "profile": [
            "http://hl7.org/fhir/us/ecr/StructureDefinition/rr-routing-entity-organization"
          ],
          "source": [
            "ecr"
          ]
        },
        "active": true,
        "type": [
          {
            "coding": [
              {
                "system": "urn:oid:2.16.840.1.114222.4.5.232",
                "code": "RR7",
                "display": "Routing Entity"
              }
            ]
          }
        ],
        "name": "Los Angeles County Department of Public Health"
      },
      "request": {
        "method": "PUT",
        "url": "Organization/f87de327-7272-42ac-012d-58904caf7ef1"
      }
    },
    {
      "fullUrl": "urn:uuid:1f7899f5-7b71-459a-8638-43a985952098",
      "resource": {
        "resourceType": "Observation",
        "id": "1f7899f5-7b71-459a-8638-43a985952098",
        "meta": {
          "profile": [
            "http://hl7.org/fhir/us/ecr/StructureDefinition/rr-reportability-information-observation"
          ],
          "source": [
            "ecr"
          ]
        },
        "identifier": [
          {
            "system": "urn:ietf:rfc:3986",
            "value": "urn:uuid:1f7899f5-7b71-459a-8638-43a985952098"
          }
        ],
        "status": "final",
        "code": {
          "coding": [
            {
              "code": "64572001",
              "display": "Condition",
              "system": "http://snomed.info/sct"
            },
            {
              "code": "75323-6",
              "display": "Condition",
              "system": "http://loinc.org"
            }
          ]
        },
        "valueCodeableConcept": {
          "coding": [
            {
              "code": "840539006",
              "display": "Disease caused by severe acute respiratory syndrome coronavirus 2 (disorder)",
              "system": "http://snomed.info/sct"
            }
          ]
        },
        "extension": [
          {
            "url": "http://hl7.org/fhir/us/ecr/StructureDefinition/us-ph-determination-of-reportability-rule-extension",
            "valueString": "COVID-19 (as a diagnosis or active problem)"
          }
        ],
        "performer": [
          {
            "reference": "Organization/f87de327-7272-42ac-012d-58904caf7ef1",
            "display": "Los Angeles County Department of Public Health"
          }
        ]
      },
      "request": {
        "method": "PUT",
        "url": "Observation/1f7899f5-7b71-459a-8638-43a985952098"
      }
    },
    {
      "fullUrl": "urn:uuid:ac693c84-dc85-45c0-8e90-86c1b15b07cf",
      "resource": {
        "resourceType": "Observation",
        "id": "ac693c84-dc85-45c0-8e90-86c1b15b07cf",
        "meta": {
          "profile": [
            "http://hl7.org/fhir/us/ecr/StructureDefinition/rr-reportability-information-observation"
          ],
          "source": [
            "ecr"
          ]
        },
        "identifier": [
          {
            "system": "urn:ietf:rfc:3986",
            "value": "urn:uuid:ac693c84-dc85-45c0-8e90-86c1b15b07cf"
          }
        ],
        "status": "final",
        "code": {
          "coding": [
            {
              "code": "64572001",
              "display": "Condition",
              "system": "http://snomed.info/sct"
            },
            {
              "code": "75323-6",
              "display": "Condition",
              "system": "http://loinc.org"
            }
          ]
        },
        "valueCodeableConcept": {
          "coding": [
            {
              "code": "58750007",
              "display": "Plague (disorder)",
              "system": "http://snomed.info/sct"
            }
          ]
        },
        "extension": [
          {
            "url": "http://hl7.org/fhir/us/ecr/StructureDefinition/us-ph-determination-of-reportability-rule-extension",
            "valueString": "Plague (as a diagnosis or active problem)"
          }
        ],
        "performer": [
          {
            "reference": "Organization/f87de327-7272-42ac-012d-58904caf7ef1",
            "display": "Los Angeles County Department of Public Health"
          }
        ]
      },
      "request": {
        "method": "PUT",
        "url": "Observation/ac693c84-dc85-45c0-8e90-86c1b15b07cf"
      }
    },
    {
      "fullUrl": "urn:uuid:d319a926-0eb3-5847-3b21-db8b778b4f07",
      "resource": {
        "resourceType": "Organization",
        "id": "d319a926-0eb3-5847-3b21-db8b778b4f07",
        "identifier": [
          {
            "system": "urn:oid:1.2.840.114350.1.13.478.2.7.5.737384.61",
            "value": "1104202761"
          }
        ],
        "name": "Vanderbilt University Medical Center",
        "address": [
          {
            "use": "work",
            "line": [
              "3401 West End Ave"
            ],
            "city": "NASHVILLE",
            "state": "TN",
            "country": "USA",
            "postalCode": "37203",
            "district": "DAVIDSON"
          }
        ],
        "telecom": [
          {
            "system": "phone",
            "value": "+1-615-322-5000",
            "use": "work"
          }
        ],
        "meta": {
          "source": [
            "ecr"
          ]
        }
      },
      "request": {
        "method": "PUT",
        "url": "Organization/d319a926-0eb3-5847-3b21-db8b778b4f07"
      }
    },
    {
      "fullUrl": "urn:uuid:550b9626-bc9e-7d6b-c5d8-e41c2000ab85",
      "resource": {
        "resourceType": "Practitioner",
        "id": "550b9626-bc9e-7d6b-c5d8-e41c2000ab85",
        "meta": {
          "profile": [
            "http://hl7.org/fhir/us/core/StructureDefinition/us-core-practitioner"
          ],
          "source": [
            "ecr"
          ]
        },
        "identifier": [
          {
            "system": "urn:oid:1.2.840.114350.1.13.478.3.7.2.697780",
            "value": "EDILABIH"
          }
        ],
        "name": [
          {
            "family": "Interface",
            "given": [
              "Lab"
            ]
          },
          {
            "use": "usual",
            "text": "Vanderbilt University Medical Center"
          }
        ],
        "address": [
          {
            "use": "work",
            "line": [
              "3401 West End Ave"
            ],
            "city": "NASHVILLE",
            "state": "TN",
            "country": "USA",
            "postalCode": "37203",
            "district": "DAVIDSON"
          }
        ]
      },
      "request": {
        "method": "PUT",
        "url": "Practitioner/550b9626-bc9e-7d6b-c5d8-e41c2000ab85"
      }
    },
    {
      "fullUrl": "urn:uuid:2223e92a-58eb-e5f3-fb29-9d540c657fde",
      "resource": {
        "resourceType": "Device",
        "id": "2223e92a-58eb-e5f3-fb29-9d540c657fde",
        "identifier": [
          {
            "system": "urn:oid:1.2.840.114350.1.1",
            "value": "10.2"
          }
        ],
        "type": {
          "coding": [
            {
              "display": "Epic - Version 10.2"
            }
          ]
        },
        "manufacturer": "Epic - Version 10.2",
        "version": [
          {
            "value": "Epic - Version 10.2"
          }
        ],
        "category": {
          "coding": [
            {
              "system": "http://hl7.org/fhir/device-category",
              "code": "software",
              "display": "software"
            }
          ]
        },
        "owner": {
          "reference": "Organization/d319a926-0eb3-5847-3b21-db8b778b4f07"
        },
        "meta": {
          "source": [
            "ecr"
          ]
        }
      },
      "request": {
        "method": "PUT",
        "url": "Device/2223e92a-58eb-e5f3-fb29-9d540c657fde"
      }
    },
    {
      "fullUrl": "urn:uuid:1306b864-69fe-41b8-93e2-0735de8637d6",
      "resource": {
        "resourceType": "Patient",
        "id": "1306b864-69fe-41b8-93e2-0735de8637d6",
        "meta": {
          "profile": [
            "http://hl7.org/fhir/us/core/StructureDefinition/us-core-patient"
          ],
          "source": [
            "ecr"
          ]
        },
        "identifier": [
          {
            "system": "urn:oid:1.2.840.114350.1.13.478.3.7.3.688884.100",
            "value": "VAN4N7Q2ZJL42G8"
          },
          {
            "system": "http://hl7.org/fhir/sid/us-ssn",
            "value": "123122254",
            "assigner": {
              "display": "Social Security Administration"
            }
          },
          {
            "system": "urn:oid:1.2.840.114350.1.13.478.3.7.5.737384.14",
            "value": "002001257",
            "assigner": {
              "display": "VUMC"
            }
          }
        ],
        "name": [
          {
            "use": "official",
            "family": "Ztest",
            "given": [
              "Apple"
            ]
          }
        ],
        "birthDate": "1965-10-05",
        "deceasedBoolean": false,
        "gender": "female",
        "extension": [
          {
            "url": "http://hl7.org/fhir/us/core/StructureDefinition/us-core-race",
            "extension": [
              {
                "url": "ombCategory",
                "valueCoding": {
                  "code": "2106-3",
                  "display": "White"
                }
              },
              {
                "url": "text",
                "valueString": "White"
              }
            ]
          },
          {
            "url": "http://hl7.org/fhir/us/core/StructureDefinition/us-core-ethnicity",
            "extension": [
              {
                "url": "ombCategory",
                "valueCoding": {
                  "code": "2186-5",
                  "display": "Not Hispanic or Latino"
                }
              },
              {
                "url": "text",
                "valueString": "Not Hispanic or Latino"
              }
            ]
          },
          {
            "url": "http://hl7.org/fhir/us/core/StructureDefinition/us-core-birthsex",
            "extension": [
              {
                "url": "value",
                "valueCodeableConcept": {
                  "coding": [
                    {
                      "system": "urn:oid:2.16.840.1.113883.5.1"
                    }
                  ]
                }
              }
            ]
          }
        ],
        "address": [
          {
            "use": "home",
            "line": [
              "999 Single Lane"
            ],
            "city": "BEVERLY HILLS",
            "state": "CA",
            "country": "USA",
            "postalCode": "90210",
            "district": "LOS ANGELES"
          },
          {
            "use": "home",
            "country": "USA"
          }
        ],
        "telecom": [
          {
            "system": "phone",
            "value": "+1-615-555-5555",
            "use": "home"
          },
          {
            "system": "phone",
            "value": "+1-615-999-9999",
            "use": "mobile"
          },
          {
            "system": "email",
            "value": "deidre.wright@vumc.org"
          },
          {
            "system": "email",
            "value": "none@none.com"
          }
        ],
        "contact": [
          {
            "relationship": "sister",
            "telecom": [
              {
                "system": "phone",
                "value": "+1-615-995-9999",
                "use": "home"
              }
            ],
            "address": [
              {
                "use": "home",
                "line": [
                  "999 Single Court"
                ],
                "city": "BEVERLY HILLS",
                "state": "CA",
                "country": "USA",
                "postalCode": "90210",
                "district": "LOS ANGELE"
              }
            ]
          }
        ],
        "communication": [
          {
            "language": {
              "coding": [
                {
                  "system": "urn:ietf:bcp:47",
                  "code": "en",
                  "display": "English"
                }
              ]
            },
            "preferred": true
          }
        ]
      },
      "request": {
        "method": "PUT",
        "url": "Patient/1306b864-69fe-41b8-93e2-0735de8637d6"
      }
    },
    {
      "fullUrl": "urn:uuid:a36f1344-b355-8a67-1146-ad16f7e8649e",
      "resource": {
        "resourceType": "CareTeam",
        "id": "a36f1344-b355-8a67-1146-ad16f7e8649e",
        "subject": {
          "reference": "Patient/1306b864-69fe-41b8-93e2-0735de8637d6"
        },
        "meta": {
          "source": [
            "ecr"
          ]
        }
      }
    },
    {
      "fullUrl": "urn:uuid:74e3244b-afcc-1fd0-4cbb-864d85303dbc",
      "resource": {
        "resourceType": "Condition",
        "id": "74e3244b-afcc-1fd0-4cbb-864d85303dbc",
        "identifier": [
          {
            "system": "urn:oid:1.2.840.114350.1.13.478.3.7.2.768076",
            "value": "52111"
          }
        ],
        "clinicalStatus": {
          "coding": [
            {
              "code": "55561003",
              "display": "Active",
              "system": "http://snomed.info/sct"
            }
          ]
        },
        "category": [
          {
            "coding": [
              {
                "code": "problem-item-list",
                "display": "Problem List Item",
                "system": "http://hl7.org/fhir/us/core/ValueSet/us-core-condition-category"
              }
            ]
          }
        ],
        "code": {
          "coding": [
            {
              "code": "L84",
              "display": "Foot callus",
              "system": "urn:oid:2.16.840.1.113883.6.90"
            }
          ]
        },
        "onsetDateTime": "2017-08-11",
        "subject": {
          "reference": "Patient/1306b864-69fe-41b8-93e2-0735de8637d6"
        },
        "meta": {
          "source": [
            "ecr"
          ]
        }
      },
      "request": {
        "method": "PUT",
        "url": "Condition/74e3244b-afcc-1fd0-4cbb-864d85303dbc"
      }
    },
    {
      "fullUrl": "urn:uuid:85d00c53-2448-939b-80ea-c251042ef350",
      "resource": {
        "resourceType": "Condition",
        "id": "85d00c53-2448-939b-80ea-c251042ef350",
        "identifier": [
          {
            "system": "urn:oid:1.2.840.114350.1.13.478.3.7.2.768076",
            "value": "66245"
          }
        ],
        "clinicalStatus": {
          "coding": [
            {
              "code": "55561003",
              "display": "Active",
              "system": "http://snomed.info/sct"
            }
          ]
        },
        "category": [
          {
            "coding": [
              {
                "code": "problem-item-list",
                "display": "Problem List Item",
                "system": "http://hl7.org/fhir/us/core/ValueSet/us-core-condition-category"
              }
            ]
          }
        ],
        "code": {
          "coding": [
            {
              "code": "N91.2",
              "display": "Absence of menstruation",
              "system": "urn:oid:2.16.840.1.113883.6.90"
            }
          ]
        },
        "onsetDateTime": "2018-06-12",
        "subject": {
          "reference": "Patient/1306b864-69fe-41b8-93e2-0735de8637d6"
        },
        "meta": {
          "source": [
            "ecr"
          ]
        }
      },
      "request": {
        "method": "PUT",
        "url": "Condition/85d00c53-2448-939b-80ea-c251042ef350"
      }
    },
    {
      "fullUrl": "urn:uuid:c6bc07dc-6be8-ff50-ac51-e096139f444d",
      "resource": {
        "resourceType": "Condition",
        "id": "c6bc07dc-6be8-ff50-ac51-e096139f444d",
        "identifier": [
          {
            "system": "urn:oid:1.2.840.114350.1.13.478.3.7.2.768076",
            "value": "90498"
          }
        ],
        "clinicalStatus": {
          "coding": [
            {
              "code": "55561003",
              "display": "Active",
              "system": "http://snomed.info/sct"
            }
          ]
        },
        "category": [
          {
            "coding": [
              {
                "code": "problem-item-list",
                "display": "Problem List Item",
                "system": "http://hl7.org/fhir/us/core/ValueSet/us-core-condition-category"
              }
            ]
          }
        ],
        "code": {
          "coding": [
            {
              "code": "A20.2",
              "display": "Plague pneumonia",
              "system": "urn:oid:2.16.840.1.113883.6.90"
            }
          ]
        },
        "onsetDateTime": "2021-06-16",
        "subject": {
          "reference": "Patient/1306b864-69fe-41b8-93e2-0735de8637d6"
        },
        "meta": {
          "source": [
            "ecr"
          ]
        }
      },
      "request": {
        "method": "PUT",
        "url": "Condition/c6bc07dc-6be8-ff50-ac51-e096139f444d"
      }
    },
    {
      "fullUrl": "urn:uuid:e47bddd9-8edd-ab04-1bc8-188ae3662beb",
      "resource": {
        "resourceType": "Condition",
        "id": "e47bddd9-8edd-ab04-1bc8-188ae3662beb",
        "identifier": [
          {
            "system": "urn:oid:1.2.840.114350.1.13.478.3.7.2.768076",
            "value": "95631"
          }
        ],
        "clinicalStatus": {
          "coding": [
            {
              "code": "55561003",
              "display": "Active",
              "system": "http://snomed.info/sct"
            }
          ]
        },
        "category": [
          {
            "coding": [
              {
                "code": "problem-item-list",
                "display": "Problem List Item",
                "system": "http://hl7.org/fhir/us/core/ValueSet/us-core-condition-category"
              }
            ]
          }
        ],
        "code": {
          "coding": [
            {
              "code": "E10.9",
              "display": "Type 1 diabetes",
              "system": "urn:oid:2.16.840.1.113883.6.90"
            }
          ]
        },
        "onsetDateTime": "2022-02-28",
        "subject": {
          "reference": "Patient/1306b864-69fe-41b8-93e2-0735de8637d6"
        },
        "meta": {
          "source": [
            "ecr"
          ]
        }
      },
      "request": {
        "method": "PUT",
        "url": "Condition/e47bddd9-8edd-ab04-1bc8-188ae3662beb"
      }
    },
    {
      "fullUrl": "urn:uuid:694d2d3f-df71-cd20-678b-51afdae3edab",
      "resource": {
        "resourceType": "Condition",
        "id": "694d2d3f-df71-cd20-678b-51afdae3edab",
        "identifier": [
          {
            "system": "urn:oid:1.2.840.114350.1.13.478.3.7.2.768076",
            "value": "97646"
          }
        ],
        "clinicalStatus": {
          "coding": [
            {
              "code": "55561003",
              "display": "Active",
              "system": "http://snomed.info/sct"
            }
          ]
        },
        "category": [
          {
            "coding": [
              {
                "code": "problem-item-list",
                "display": "Problem List Item",
                "system": "http://hl7.org/fhir/us/core/ValueSet/us-core-condition-category"
              }
            ]
          }
        ],
        "code": {
          "coding": [
            {
              "code": "R07.1",
              "display": "Chest pain on breathing",
              "system": "urn:oid:2.16.840.1.113883.6.90"
            }
          ]
        },
        "onsetDateTime": "2022-05-26",
        "subject": {
          "reference": "Patient/1306b864-69fe-41b8-93e2-0735de8637d6"
        },
        "meta": {
          "source": [
            "ecr"
          ]
        }
      },
      "request": {
        "method": "PUT",
        "url": "Condition/694d2d3f-df71-cd20-678b-51afdae3edab"
      }
    },
    {
      "fullUrl": "urn:uuid:f978ebec-b7b8-dc2e-e0fc-e4ceed3bafb5",
      "resource": {
        "resourceType": "Condition",
        "id": "f978ebec-b7b8-dc2e-e0fc-e4ceed3bafb5",
        "identifier": [
          {
            "system": "urn:oid:1.2.840.114350.1.13.478.3.7.2.768076",
            "value": "98700"
          }
        ],
        "clinicalStatus": {
          "coding": [
            {
              "code": "55561003",
              "display": "Active",
              "system": "http://snomed.info/sct"
            }
          ]
        },
        "category": [
          {
            "coding": [
              {
                "code": "problem-item-list",
                "display": "Problem List Item",
                "system": "http://hl7.org/fhir/us/core/ValueSet/us-core-condition-category"
              }
            ]
          }
        ],
        "code": {
          "coding": [
            {
              "code": "U07.1",
              "display": "COVID toes",
              "system": "urn:oid:2.16.840.1.113883.6.90"
            }
          ]
        },
        "onsetDateTime": "2022-07-13",
        "subject": {
          "reference": "Patient/1306b864-69fe-41b8-93e2-0735de8637d6"
        },
        "meta": {
          "source": [
            "ecr"
          ]
        }
      },
      "request": {
        "method": "PUT",
        "url": "Condition/f978ebec-b7b8-dc2e-e0fc-e4ceed3bafb5"
      }
    },
    {
      "fullUrl": "urn:uuid:a52fe3d7-b74b-0937-c129-452596ed361d",
      "resource": {
        "resourceType": "DiagnosticReport",
        "id": "a52fe3d7-b74b-0937-c129-452596ed361d",
        "identifier": [
          {
            "system": "urn:oid:1.2.840.114350.1.13.478.3.7.2.798268",
            "value": "2032330"
          }
        ],
        "status": "final",
        "code": {
          "coding": [
            {
              "code": "201332",
              "display": "PCR SARS-CoV-2 and Influenza A/B",
              "system": "urn:oid:1.2.840.114350.1.13.478.3.7.2.696580"
            }
          ]
        },
        "effectivePeriod": {
          "start": "2021-12-07T22:16:00Z",
          "end": "2021-12-07T22:16:00Z"
        },
        "subject": {
          "reference": "Patient/1306b864-69fe-41b8-93e2-0735de8637d6"
        },
        "performer": [
          {
            "reference": "Organization/22c6cdd0-bde1-e220-9ba4-2c2802f795ad"
          }
        ],
        "result": [
          {
            "reference": "Observation/e8891992-3e7b-efbd-fc4e-e7da7a2ff1be"
          },
          {
            "reference": "Observation/b88452c1-d070-0797-d5e6-843ef9ef7317"
          },
          {
            "reference": "Observation/da885e41-73e5-98af-f3b1-14e924129a02"
          },
          {
            "reference": "Observation/64124534-e4cf-5bb7-9eaa-8842e50daac3"
          }
        ],
        "meta": {
          "source": [
            "ecr"
          ]
        }
      },
      "request": {
        "method": "PUT",
        "url": "DiagnosticReport/a52fe3d7-b74b-0937-c129-452596ed361d"
      }
    },
    {
      "fullUrl": "urn:uuid:22c6cdd0-bde1-e220-9ba4-2c2802f795ad",
      "resource": {
        "resourceType": "Organization",
        "id": "22c6cdd0-bde1-e220-9ba4-2c2802f795ad",
        "name": "VUMC CERNER LAB",
        "address": [
          {
            "use": "work",
            "line": [
              "4605 TVC VUMC",
              "1301 Medical Center Drive"
            ],
            "city": "NASHVILLE",
            "state": "TN",
            "country": "USA",
            "postalCode": "37232-5310",
            "district": "DAVIDSON"
          }
        ],
        "meta": {
          "source": [
            "ecr"
          ]
        }
      },
      "request": {
        "method": "PUT",
        "url": "Organization/22c6cdd0-bde1-e220-9ba4-2c2802f795ad"
      }
    },
    {
      "fullUrl": "urn:uuid:e8891992-3e7b-efbd-fc4e-e7da7a2ff1be",
      "resource": {
        "resourceType": "Observation",
        "id": "e8891992-3e7b-efbd-fc4e-e7da7a2ff1be",
        "meta": {
          "profile": [
            "http://hl7.org/fhir/us/core/StructureDefinition/us-core-observationresults"
          ],
          "source": [
            "ecr"
          ]
        },
        "identifier": [
          {
            "system": "urn:oid:1.2.840.114350.1.13.478.3.7.6.798268.2000",
            "value": "2032330.1"
          }
        ],
        "category": [
          {
            "coding": [
              {
                "system": "http://terminology.hl7.org/CodeSystem/observation-category",
                "code": "laboratory"
              }
            ]
          }
        ],
        "status": "final",
        "code": {
          "coding": [
            {
              "code": "94533-7",
              "display": "SARS-CoV-2 Nucleic Acid (Result)",
              "system": "http://loinc.org"
            }
          ]
        },
        "effectiveDateTime": "2023-01-02T16:56:09Z",
        "valueString": "Not Detected",
        "referenceRange": [
          {
            "text": "Not Detected"
          }
        ],
        "extension": [
          {
            "url": "http://hl7.org/fhir/R4/specimen.html",
            "extension": [
              {
                "url": "specimen source",
                "valueString": "Nasopharynx"
              },
              {
                "url": "specimen collection time",
                "valueDateTime": "2021-12-07T22:16:00Z"
              },
              {
                "url": "specimen receive time",
                "valueDateTime": "2021-12-07T22:17:00Z"
              },
              {
                "url": "observation entry reference value",
                "valueString": "#Result.1.2.840.114350.1.13.478.3.7.2.798268.2032330.Comp1"
              }
            ]
          }
        ],
        "subject": {
          "reference": "Patient/1306b864-69fe-41b8-93e2-0735de8637d6"
        },
        "performer": [
          {
            "display": "VUMC CERNER LAB",
            "reference": "Organization/e3ece69c-0968-59c9-47dd-f16db731621a"
          }
        ]
      },
      "request": {
        "method": "PUT",
        "url": "Observation/e8891992-3e7b-efbd-fc4e-e7da7a2ff1be"
      }
    },
    {
      "fullUrl": "urn:uuid:e3ece69c-0968-59c9-47dd-f16db731621a",
      "resource": {
        "resourceType": "Organization",
        "id": "e3ece69c-0968-59c9-47dd-f16db731621a",
        "name": "VUMC CERNER LAB",
        "address": [
          {
            "line": [
              "4605 TVC VUMC",
              "1301 Medical Center Drive"
            ],
            "city": "NASHVILLE",
            "state": "TN",
            "postalCode": "37232-5310"
          }
        ],
        "telecom": [
          {
            "system": "phone",
            "value": "+1-615-875-5227"
          }
        ],
        "meta": {
          "source": [
            "ecr"
          ]
        }
      },
      "request": {
        "method": "PUT",
        "url": "Organization/e3ece69c-0968-59c9-47dd-f16db731621a"
      }
    },
    {
      "fullUrl": "urn:uuid:b88452c1-d070-0797-d5e6-843ef9ef7317",
      "resource": {
        "resourceType": "Observation",
        "id": "b88452c1-d070-0797-d5e6-843ef9ef7317",
        "meta": {
          "profile": [
            "http://hl7.org/fhir/us/core/StructureDefinition/us-core-observationresults"
          ],
          "source": [
            "ecr"
          ]
        },
        "identifier": [
          {
            "system": "urn:oid:1.2.840.114350.1.13.478.3.7.6.798268.2000",
            "value": "2032330.2"
          }
        ],
        "category": [
          {
            "coding": [
              {
                "system": "http://terminology.hl7.org/CodeSystem/observation-category",
                "code": "laboratory"
              }
            ]
          }
        ],
        "status": "final",
        "code": {
          "coding": [
            {
              "code": "92142-9",
              "display": "Influenza A PCR (Result)",
              "system": "http://loinc.org"
            }
          ]
        },
        "effectiveDateTime": "2023-01-02T16:56:09Z",
        "valueString": "Not Detected",
        "referenceRange": [
          {
            "text": "Not Detected"
          }
        ],
        "extension": [
          {
            "url": "http://hl7.org/fhir/R4/specimen.html",
            "extension": [
              {
                "url": "specimen source",
                "valueString": "Nasopharynx"
              },
              {
                "url": "specimen collection time",
                "valueDateTime": "2021-12-07T22:16:00Z"
              },
              {
                "url": "specimen receive time",
                "valueDateTime": "2021-12-07T22:17:00Z"
              },
              {
                "url": "observation entry reference value",
                "valueString": "#Result.1.2.840.114350.1.13.478.3.7.2.798268.2032330.Comp2"
              }
            ]
          }
        ],
        "subject": {
          "reference": "Patient/1306b864-69fe-41b8-93e2-0735de8637d6"
        },
        "performer": [
          {
            "display": "VUMC CERNER LAB",
            "reference": "Organization/e3ece69c-0968-59c9-47dd-f16db731621a"
          }
        ]
      },
      "request": {
        "method": "PUT",
        "url": "Observation/b88452c1-d070-0797-d5e6-843ef9ef7317"
      }
    },
    {
      "fullUrl": "urn:uuid:da885e41-73e5-98af-f3b1-14e924129a02",
      "resource": {
        "resourceType": "Observation",
        "id": "da885e41-73e5-98af-f3b1-14e924129a02",
        "meta": {
          "profile": [
            "http://hl7.org/fhir/us/core/StructureDefinition/us-core-observationresults"
          ],
          "source": [
            "ecr"
          ]
        },
        "identifier": [
          {
            "system": "urn:oid:1.2.840.114350.1.13.478.3.7.6.798268.2000",
            "value": "2032330.3"
          }
        ],
        "category": [
          {
            "coding": [
              {
                "system": "http://terminology.hl7.org/CodeSystem/observation-category",
                "code": "laboratory"
              }
            ]
          }
        ],
        "status": "final",
        "code": {
          "coding": [
            {
              "code": "92141-1",
              "display": "Influenza B PCR (Result)",
              "system": "http://loinc.org"
            }
          ]
        },
        "effectiveDateTime": "2023-01-02T16:56:09Z",
        "valueString": "Detected",
        "referenceRange": [
          {
            "text": "Not Detected"
          }
        ],
        "interpretation": [
          {
            "coding": [
              {
                "code": "A",
                "display": "Abnormal",
                "system": "http://terminology.hl7.org/CodeSystem/v3-ObservationInterpretation"
              }
            ]
          }
        ],
        "extension": [
          {
            "url": "http://hl7.org/fhir/R4/specimen.html",
            "extension": [
              {
                "url": "specimen source",
                "valueString": "Nasopharynx"
              },
              {
                "url": "specimen collection time",
                "valueDateTime": "2021-12-07T22:16:00Z"
              },
              {
                "url": "specimen receive time",
                "valueDateTime": "2021-12-07T22:17:00Z"
              },
              {
                "url": "observation entry reference value",
                "valueString": "#Result.1.2.840.114350.1.13.478.3.7.2.798268.2032330.Comp3"
              }
            ]
          }
        ],
        "subject": {
          "reference": "Patient/1306b864-69fe-41b8-93e2-0735de8637d6"
        },
        "performer": [
          {
            "display": "VUMC CERNER LAB",
            "reference": "Organization/e3ece69c-0968-59c9-47dd-f16db731621a"
          }
        ]
      },
      "request": {
        "method": "PUT",
        "url": "Observation/da885e41-73e5-98af-f3b1-14e924129a02"
      }
    },
    {
      "fullUrl": "urn:uuid:64124534-e4cf-5bb7-9eaa-8842e50daac3",
      "resource": {
        "resourceType": "Observation",
        "id": "64124534-e4cf-5bb7-9eaa-8842e50daac3",
        "meta": {
          "profile": [
            "http://hl7.org/fhir/us/core/StructureDefinition/us-core-observationresults"
          ],
          "source": [
            "ecr"
          ]
        },
        "identifier": [
          {
            "system": "urn:oid:1.2.840.114350.1.13.478.3.7.2.798268",
            "value": "2032330"
          }
        ],
        "category": [
          {
            "coding": [
              {
                "system": "http://terminology.hl7.org/CodeSystem/observation-category",
                "code": "laboratory"
              }
            ]
          }
        ],
        "status": "final",
        "code": {
          "coding": [
            {
              "code": "56850-1",
              "display": "Lab Interpretation",
              "system": "http://loinc.org"
            }
          ]
        },
        "effectiveDateTime": "2023-01-02T16:56:09Z",
        "valueString": "Abnormal",
        "extension": [
          {
            "url": "http://hl7.org/fhir/R4/specimen.html",
            "extension": [
              {
                "url": "specimen source",
                "valueString": "Nasopharynx"
              },
              {
                "url": "specimen collection time",
                "valueDateTime": "2021-12-07T22:16:00Z"
              },
              {
                "url": "specimen receive time",
                "valueDateTime": "2021-12-07T22:17:00Z"
              }
            ]
          }
        ],
        "subject": {
          "reference": "Patient/1306b864-69fe-41b8-93e2-0735de8637d6"
        }
      },
      "request": {
        "method": "PUT",
        "url": "Observation/64124534-e4cf-5bb7-9eaa-8842e50daac3"
      }
    },
    {
      "fullUrl": "urn:uuid:523f2bf1-8fb7-74b3-3c31-b7acc97c0014",
      "resource": {
        "resourceType": "DiagnosticReport",
        "id": "523f2bf1-8fb7-74b3-3c31-b7acc97c0014",
        "identifier": [
          {
            "system": "urn:oid:1.2.840.114350.1.13.478.3.7.2.798268",
            "value": "2032342"
          }
        ],
        "status": "final",
        "code": {
          "coding": [
            {
              "code": "1698",
              "display": "CBC",
              "system": "urn:oid:1.2.840.114350.1.13.478.3.7.2.696580"
            }
          ]
        },
        "effectivePeriod": {
          "start": "2021-12-08T15:55:00Z",
          "end": "2021-12-08T15:55:00Z"
        },
        "subject": {
          "reference": "Patient/1306b864-69fe-41b8-93e2-0735de8637d6"
        },
        "performer": [
          {
            "reference": "Organization/22c6cdd0-bde1-e220-9ba4-2c2802f795ad"
          }
        ],
        "result": [
          {
            "reference": "Observation/63dc29b0-568b-ea78-47fa-802087669758"
          },
          {
            "reference": "Observation/6e9e3ca1-e733-21ad-3275-cf0465338e64"
          },
          {
            "reference": "Observation/dfcc7809-3d78-51fd-01da-4ddad27afdc6"
          },
          {
            "reference": "Observation/fbd682f7-a0c5-cc58-529c-ecbd8f9a153a"
          },
          {
            "reference": "Observation/f01e514c-937b-42ec-10c0-d9fe36a1aeeb"
          },
          {
            "reference": "Observation/fa87f9b4-c14e-658f-5995-7b2cd299f284"
          },
          {
            "reference": "Observation/071af44f-0486-b405-07ab-29b2c3341928"
          },
          {
            "reference": "Observation/96cd0c32-377e-dda9-ed4b-4cb070d72485"
          },
          {
            "reference": "Observation/bc0ecc5c-b599-f30a-0b48-f25c4d22befa"
          },
          {
            "reference": "Observation/4f741ec7-b8b2-3e4c-68c7-0f2e1b44a1f8"
          },
          {
            "reference": "Observation/8836083b-0fcb-6948-e2da-5bd57c68799d"
          },
          {
            "reference": "Observation/675e472b-f894-3eed-3f2e-d605c200e09c"
          },
          {
            "reference": "Observation/37196d63-2634-d19e-4406-dcdd35542713"
          },
          {
            "reference": "Observation/057167fd-1ba9-b13c-7ef7-49c0ac6d11bd"
          }
        ],
        "meta": {
          "source": [
            "ecr"
          ]
        }
      },
      "request": {
        "method": "PUT",
        "url": "DiagnosticReport/523f2bf1-8fb7-74b3-3c31-b7acc97c0014"
      }
    },
    {
      "fullUrl": "urn:uuid:63dc29b0-568b-ea78-47fa-802087669758",
      "resource": {
        "resourceType": "Observation",
        "id": "63dc29b0-568b-ea78-47fa-802087669758",
        "meta": {
          "profile": [
            "http://hl7.org/fhir/us/core/StructureDefinition/us-core-observationresults"
          ],
          "source": [
            "ecr"
          ]
        },
        "identifier": [
          {
            "system": "urn:oid:1.2.840.114350.1.13.478.3.7.6.798268.2000",
            "value": "2032342.1"
          }
        ],
        "category": [
          {
            "coding": [
              {
                "system": "http://terminology.hl7.org/CodeSystem/observation-category",
                "code": "laboratory"
              }
            ]
          }
        ],
        "status": "final",
        "code": {
          "coding": [
            {
              "code": "6690-2",
              "display": "White Blood Cells",
              "system": "http://loinc.org"
            }
          ]
        },
        "effectiveDateTime": "2021-12-08T16:20:30Z",
        "valueQuantity": {
          "value": 19.3
        },
        "referenceRange": [
          {
            "text": "3.9 x10(3)/mcL - 10.7 x10(3)/mcL",
            "low": {
              "value": "3.9",
              "unit": "x10(3)/mcL"
            },
            "high": {
              "value": "10.7",
              "unit": "x10(3)/mcL"
            }
          }
        ],
        "interpretation": [
          {
            "coding": [
              {
                "code": "H",
                "display": "High",
                "system": "http://terminology.hl7.org/CodeSystem/v3-ObservationInterpretation"
              }
            ]
          }
        ],
        "extension": [
          {
            "url": "http://hl7.org/fhir/R4/specimen.html",
            "extension": [
              {
                "url": "specimen source",
                "valueString": "Blood"
              },
              {
                "url": "specimen collection time",
                "valueDateTime": "2021-12-08T15:55:00Z"
              },
              {
                "url": "specimen receive time",
                "valueDateTime": "2021-12-08T15:56:00Z"
              },
              {
                "url": "observation entry reference value",
                "valueString": "#Result.1.2.840.114350.1.13.478.3.7.2.798268.2032342.Comp1"
              }
            ]
          }
        ],
        "subject": {
          "reference": "Patient/1306b864-69fe-41b8-93e2-0735de8637d6"
        },
        "performer": [
          {
            "display": "VUMC CERNER LAB",
            "reference": "Organization/e3ece69c-0968-59c9-47dd-f16db731621a"
          }
        ]
      },
      "request": {
        "method": "PUT",
        "url": "Observation/63dc29b0-568b-ea78-47fa-802087669758"
      }
    },
    {
      "fullUrl": "urn:uuid:6e9e3ca1-e733-21ad-3275-cf0465338e64",
      "resource": {
        "resourceType": "Observation",
        "id": "6e9e3ca1-e733-21ad-3275-cf0465338e64",
        "meta": {
          "profile": [
            "http://hl7.org/fhir/us/core/StructureDefinition/us-core-observationresults"
          ],
          "source": [
            "ecr"
          ]
        },
        "identifier": [
          {
            "system": "urn:oid:1.2.840.114350.1.13.478.3.7.6.798268.2000",
            "value": "2032342.2"
          }
        ],
        "category": [
          {
            "coding": [
              {
                "system": "http://terminology.hl7.org/CodeSystem/observation-category",
                "code": "laboratory"
              }
            ]
          }
        ],
        "status": "final",
        "code": {
          "coding": [
            {
              "code": "789-8",
              "display": "Red Blood Cells",
              "system": "http://loinc.org"
            }
          ]
        },
        "effectiveDateTime": "2021-12-08T16:20:30Z",
        "valueQuantity": {
          "value": 2.28
        },
        "referenceRange": [
          {
            "text": "4.00 x10(6)/mcL - 5.50 x10(6)/mcL",
            "low": {
              "value": "4.00",
              "unit": "x10(6)/mcL"
            },
            "high": {
              "value": "5.50",
              "unit": "x10(6)/mcL"
            }
          }
        ],
        "interpretation": [
          {
            "coding": [
              {
                "code": "L",
                "display": "Low",
                "system": "http://terminology.hl7.org/CodeSystem/v3-ObservationInterpretation"
              }
            ]
          }
        ],
        "extension": [
          {
            "url": "http://hl7.org/fhir/R4/specimen.html",
            "extension": [
              {
                "url": "specimen source",
                "valueString": "Blood"
              },
              {
                "url": "specimen collection time",
                "valueDateTime": "2021-12-08T15:55:00Z"
              },
              {
                "url": "specimen receive time",
                "valueDateTime": "2021-12-08T15:56:00Z"
              },
              {
                "url": "observation entry reference value",
                "valueString": "#Result.1.2.840.114350.1.13.478.3.7.2.798268.2032342.Comp2"
              }
            ]
          }
        ],
        "subject": {
          "reference": "Patient/1306b864-69fe-41b8-93e2-0735de8637d6"
        },
        "performer": [
          {
            "display": "VUMC CERNER LAB",
            "reference": "Organization/e3ece69c-0968-59c9-47dd-f16db731621a"
          }
        ]
      },
      "request": {
        "method": "PUT",
        "url": "Observation/6e9e3ca1-e733-21ad-3275-cf0465338e64"
      }
    },
    {
      "fullUrl": "urn:uuid:dfcc7809-3d78-51fd-01da-4ddad27afdc6",
      "resource": {
        "resourceType": "Observation",
        "id": "dfcc7809-3d78-51fd-01da-4ddad27afdc6",
        "meta": {
          "profile": [
            "http://hl7.org/fhir/us/core/StructureDefinition/us-core-observationresults"
          ],
          "source": [
            "ecr"
          ]
        },
        "identifier": [
          {
            "system": "urn:oid:1.2.840.114350.1.13.478.3.7.6.798268.2000",
            "value": "2032342.3"
          }
        ],
        "category": [
          {
            "coding": [
              {
                "system": "http://terminology.hl7.org/CodeSystem/observation-category",
                "code": "laboratory"
              }
            ]
          }
        ],
        "status": "final",
        "code": {
          "coding": [
            {
              "code": "718-7",
              "display": "Hemoglobin",
              "system": "http://loinc.org"
            }
          ]
        },
        "effectiveDateTime": "2021-12-08T16:20:30Z",
        "valueQuantity": {
          "value": 7.1
        },
        "referenceRange": [
          {
            "text": "11.8 gm/dL - 16.0 gm/dL",
            "low": {
              "value": "11.8",
              "unit": "gm/dL"
            },
            "high": {
              "value": "16.0",
              "unit": "gm/dL"
            }
          }
        ],
        "interpretation": [
          {
            "coding": [
              {
                "code": "L",
                "display": "Low",
                "system": "http://terminology.hl7.org/CodeSystem/v3-ObservationInterpretation"
              }
            ]
          }
        ],
        "extension": [
          {
            "url": "http://hl7.org/fhir/R4/specimen.html",
            "extension": [
              {
                "url": "specimen source",
                "valueString": "Blood"
              },
              {
                "url": "specimen collection time",
                "valueDateTime": "2021-12-08T15:55:00Z"
              },
              {
                "url": "specimen receive time",
                "valueDateTime": "2021-12-08T15:56:00Z"
              },
              {
                "url": "observation entry reference value",
                "valueString": "#Result.1.2.840.114350.1.13.478.3.7.2.798268.2032342.Comp3"
              }
            ]
          }
        ],
        "subject": {
          "reference": "Patient/1306b864-69fe-41b8-93e2-0735de8637d6"
        },
        "performer": [
          {
            "display": "VUMC CERNER LAB",
            "reference": "Organization/e3ece69c-0968-59c9-47dd-f16db731621a"
          }
        ]
      },
      "request": {
        "method": "PUT",
        "url": "Observation/dfcc7809-3d78-51fd-01da-4ddad27afdc6"
      }
    },
    {
      "fullUrl": "urn:uuid:fbd682f7-a0c5-cc58-529c-ecbd8f9a153a",
      "resource": {
        "resourceType": "Observation",
        "id": "fbd682f7-a0c5-cc58-529c-ecbd8f9a153a",
        "meta": {
          "profile": [
            "http://hl7.org/fhir/us/core/StructureDefinition/us-core-observationresults"
          ],
          "source": [
            "ecr"
          ]
        },
        "identifier": [
          {
            "system": "urn:oid:1.2.840.114350.1.13.478.3.7.6.798268.2000",
            "value": "2032342.4"
          }
        ],
        "category": [
          {
            "coding": [
              {
                "system": "http://terminology.hl7.org/CodeSystem/observation-category",
                "code": "laboratory"
              }
            ]
          }
        ],
        "status": "final",
        "code": {
          "coding": [
            {
              "code": "4544-3",
              "display": "Hematocrit",
              "system": "http://loinc.org"
            }
          ]
        },
        "effectiveDateTime": "2021-12-08T16:20:30Z",
        "valueQuantity": {
          "value": 22,
          "unit": "%"
        },
        "referenceRange": [
          {
            "text": "36 % - 43 %",
            "low": {
              "value": 36,
              "unit": "%"
            },
            "high": {
              "value": 43,
              "unit": "%"
            }
          }
        ],
        "interpretation": [
          {
            "coding": [
              {
                "code": "L",
                "display": "Low",
                "system": "http://terminology.hl7.org/CodeSystem/v3-ObservationInterpretation"
              }
            ]
          }
        ],
        "extension": [
          {
            "url": "http://hl7.org/fhir/R4/specimen.html",
            "extension": [
              {
                "url": "specimen source",
                "valueString": "Blood"
              },
              {
                "url": "specimen collection time",
                "valueDateTime": "2021-12-08T15:55:00Z"
              },
              {
                "url": "specimen receive time",
                "valueDateTime": "2021-12-08T15:56:00Z"
              },
              {
                "url": "observation entry reference value",
                "valueString": "#Result.1.2.840.114350.1.13.478.3.7.2.798268.2032342.Comp4"
              }
            ]
          }
        ],
        "subject": {
          "reference": "Patient/1306b864-69fe-41b8-93e2-0735de8637d6"
        },
        "performer": [
          {
            "display": "VUMC CERNER LAB",
            "reference": "Organization/e3ece69c-0968-59c9-47dd-f16db731621a"
          }
        ]
      },
      "request": {
        "method": "PUT",
        "url": "Observation/fbd682f7-a0c5-cc58-529c-ecbd8f9a153a"
      }
    },
    {
      "fullUrl": "urn:uuid:f01e514c-937b-42ec-10c0-d9fe36a1aeeb",
      "resource": {
        "resourceType": "Observation",
        "id": "f01e514c-937b-42ec-10c0-d9fe36a1aeeb",
        "meta": {
          "profile": [
            "http://hl7.org/fhir/us/core/StructureDefinition/us-core-observationresults"
          ],
          "source": [
            "ecr"
          ]
        },
        "identifier": [
          {
            "system": "urn:oid:1.2.840.114350.1.13.478.3.7.6.798268.2000",
            "value": "2032342.5"
          }
        ],
        "category": [
          {
            "coding": [
              {
                "system": "http://terminology.hl7.org/CodeSystem/observation-category",
                "code": "laboratory"
              }
            ]
          }
        ],
        "status": "final",
        "code": {
          "coding": [
            {
              "code": "787-2",
              "display": "Mean Cell Volume",
              "system": "http://loinc.org"
            }
          ]
        },
        "effectiveDateTime": "2021-12-08T16:20:30Z",
        "valueQuantity": {
          "value": 97,
          "unit": "fL"
        },
        "referenceRange": [
          {
            "text": "81 fL - 98 fL",
            "low": {
              "value": 81,
              "unit": "fL"
            },
            "high": {
              "value": 98,
              "unit": "fL"
            }
          }
        ],
        "extension": [
          {
            "url": "http://hl7.org/fhir/R4/specimen.html",
            "extension": [
              {
                "url": "specimen source",
                "valueString": "Blood"
              },
              {
                "url": "specimen collection time",
                "valueDateTime": "2021-12-08T15:55:00Z"
              },
              {
                "url": "specimen receive time",
                "valueDateTime": "2021-12-08T15:56:00Z"
              },
              {
                "url": "observation entry reference value",
                "valueString": "#Result.1.2.840.114350.1.13.478.3.7.2.798268.2032342.Comp5"
              }
            ]
          }
        ],
        "subject": {
          "reference": "Patient/1306b864-69fe-41b8-93e2-0735de8637d6"
        },
        "performer": [
          {
            "display": "VUMC CERNER LAB",
            "reference": "Organization/e3ece69c-0968-59c9-47dd-f16db731621a"
          }
        ]
      },
      "request": {
        "method": "PUT",
        "url": "Observation/f01e514c-937b-42ec-10c0-d9fe36a1aeeb"
      }
    },
    {
      "fullUrl": "urn:uuid:fa87f9b4-c14e-658f-5995-7b2cd299f284",
      "resource": {
        "resourceType": "Observation",
        "id": "fa87f9b4-c14e-658f-5995-7b2cd299f284",
        "meta": {
          "profile": [
            "http://hl7.org/fhir/us/core/StructureDefinition/us-core-observationresults"
          ],
          "source": [
            "ecr"
          ]
        },
        "identifier": [
          {
            "system": "urn:oid:1.2.840.114350.1.13.478.3.7.6.798268.2000",
            "value": "2032342.6"
          }
        ],
        "category": [
          {
            "coding": [
              {
                "system": "http://terminology.hl7.org/CodeSystem/observation-category",
                "code": "laboratory"
              }
            ]
          }
        ],
        "status": "final",
        "code": {
          "coding": [
            {
              "code": "785-6",
              "display": "Mean Cell Hemoglobin",
              "system": "http://loinc.org"
            }
          ]
        },
        "effectiveDateTime": "2021-12-08T16:20:30Z",
        "valueQuantity": {
          "value": 31.1,
          "unit": "pg"
        },
        "referenceRange": [
          {
            "text": "27.0 pg - 32.0 pg",
            "low": {
              "value": 27.0,
              "unit": "pg"
            },
            "high": {
              "value": 32.0,
              "unit": "pg"
            }
          }
        ],
        "extension": [
          {
            "url": "http://hl7.org/fhir/R4/specimen.html",
            "extension": [
              {
                "url": "specimen source",
                "valueString": "Blood"
              },
              {
                "url": "specimen collection time",
                "valueDateTime": "2021-12-08T15:55:00Z"
              },
              {
                "url": "specimen receive time",
                "valueDateTime": "2021-12-08T15:56:00Z"
              },
              {
                "url": "observation entry reference value",
                "valueString": "#Result.1.2.840.114350.1.13.478.3.7.2.798268.2032342.Comp6"
              }
            ]
          }
        ],
        "subject": {
          "reference": "Patient/1306b864-69fe-41b8-93e2-0735de8637d6"
        },
        "performer": [
          {
            "display": "VUMC CERNER LAB",
            "reference": "Organization/e3ece69c-0968-59c9-47dd-f16db731621a"
          }
        ]
      },
      "request": {
        "method": "PUT",
        "url": "Observation/fa87f9b4-c14e-658f-5995-7b2cd299f284"
      }
    },
    {
      "fullUrl": "urn:uuid:071af44f-0486-b405-07ab-29b2c3341928",
      "resource": {
        "resourceType": "Observation",
        "id": "071af44f-0486-b405-07ab-29b2c3341928",
        "meta": {
          "profile": [
            "http://hl7.org/fhir/us/core/StructureDefinition/us-core-observationresults"
          ],
          "source": [
            "ecr"
          ]
        },
        "identifier": [
          {
            "system": "urn:oid:1.2.840.114350.1.13.478.3.7.6.798268.2000",
            "value": "2032342.7"
          }
        ],
        "category": [
          {
            "coding": [
              {
                "system": "http://terminology.hl7.org/CodeSystem/observation-category",
                "code": "laboratory"
              }
            ]
          }
        ],
        "status": "final",
        "code": {
          "coding": [
            {
              "code": "786-4",
              "display": "Mean Cell Hemoglobin Concentration",
              "system": "http://loinc.org"
            }
          ]
        },
        "effectiveDateTime": "2021-12-08T16:20:30Z",
        "valueQuantity": {
          "value": 32.0
        },
        "referenceRange": [
          {
            "text": "31.0 gm/dL - 35.0 gm/dL",
            "low": {
              "value": "31.0",
              "unit": "gm/dL"
            },
            "high": {
              "value": "35.0",
              "unit": "gm/dL"
            }
          }
        ],
        "extension": [
          {
            "url": "http://hl7.org/fhir/R4/specimen.html",
            "extension": [
              {
                "url": "specimen source",
                "valueString": "Blood"
              },
              {
                "url": "specimen collection time",
                "valueDateTime": "2021-12-08T15:55:00Z"
              },
              {
                "url": "specimen receive time",
                "valueDateTime": "2021-12-08T15:56:00Z"
              },
              {
                "url": "observation entry reference value",
                "valueString": "#Result.1.2.840.114350.1.13.478.3.7.2.798268.2032342.Comp7"
              }
            ]
          }
        ],
        "subject": {
          "reference": "Patient/1306b864-69fe-41b8-93e2-0735de8637d6"
        },
        "performer": [
          {
            "display": "VUMC CERNER LAB",
            "reference": "Organization/e3ece69c-0968-59c9-47dd-f16db731621a"
          }
        ]
      },
      "request": {
        "method": "PUT",
        "url": "Observation/071af44f-0486-b405-07ab-29b2c3341928"
      }
    },
    {
      "fullUrl": "urn:uuid:96cd0c32-377e-dda9-ed4b-4cb070d72485",
      "resource": {
        "resourceType": "Observation",
        "id": "96cd0c32-377e-dda9-ed4b-4cb070d72485",
        "meta": {
          "profile": [
            "http://hl7.org/fhir/us/core/StructureDefinition/us-core-observationresults"
          ],
          "source": [
            "ecr"
          ]
        },
        "identifier": [
          {
            "system": "urn:oid:1.2.840.114350.1.13.478.3.7.6.798268.2000",
            "value": "2032342.8"
          }
        ],
        "category": [
          {
            "coding": [
              {
                "system": "http://terminology.hl7.org/CodeSystem/observation-category",
                "code": "laboratory"
              }
            ]
          }
        ],
        "status": "final",
        "code": {
          "coding": [
            {
              "code": "21000-5",
              "display": "RDW SD",
              "system": "http://loinc.org"
            }
          ]
        },
        "effectiveDateTime": "2021-12-08T16:20:30Z",
        "valueQuantity": {
          "value": 47.8,
          "unit": "fL"
        },
        "referenceRange": [
          {
            "text": "37.4 fL - 52.4 fL",
            "low": {
              "value": 37.4,
              "unit": "fL"
            },
            "high": {
              "value": 52.4,
              "unit": "fL"
            }
          }
        ],
        "extension": [
          {
            "url": "http://hl7.org/fhir/R4/specimen.html",
            "extension": [
              {
                "url": "specimen source",
                "valueString": "Blood"
              },
              {
                "url": "specimen collection time",
                "valueDateTime": "2021-12-08T15:55:00Z"
              },
              {
                "url": "specimen receive time",
                "valueDateTime": "2021-12-08T15:56:00Z"
              },
              {
                "url": "observation entry reference value",
                "valueString": "#Result.1.2.840.114350.1.13.478.3.7.2.798268.2032342.Comp8"
              }
            ]
          }
        ],
        "subject": {
          "reference": "Patient/1306b864-69fe-41b8-93e2-0735de8637d6"
        },
        "performer": [
          {
            "display": "VUMC CERNER LAB",
            "reference": "Organization/e3ece69c-0968-59c9-47dd-f16db731621a"
          }
        ]
      },
      "request": {
        "method": "PUT",
        "url": "Observation/96cd0c32-377e-dda9-ed4b-4cb070d72485"
      }
    },
    {
      "fullUrl": "urn:uuid:bc0ecc5c-b599-f30a-0b48-f25c4d22befa",
      "resource": {
        "resourceType": "Observation",
        "id": "bc0ecc5c-b599-f30a-0b48-f25c4d22befa",
        "meta": {
          "profile": [
            "http://hl7.org/fhir/us/core/StructureDefinition/us-core-observationresults"
          ],
          "source": [
            "ecr"
          ]
        },
        "identifier": [
          {
            "system": "urn:oid:1.2.840.114350.1.13.478.3.7.6.798268.2000",
            "value": "2032342.9"
          }
        ],
        "category": [
          {
            "coding": [
              {
                "system": "http://terminology.hl7.org/CodeSystem/observation-category",
                "code": "laboratory"
              }
            ]
          }
        ],
        "status": "final",
        "code": {
          "coding": [
            {
              "code": "788-0",
              "display": "RDW CV",
              "system": "http://loinc.org"
            }
          ]
        },
        "effectiveDateTime": "2021-12-08T16:20:30Z",
        "valueQuantity": {
          "value": 13.4,
          "unit": "%"
        },
        "referenceRange": [
          {
            "text": "11.1 % - 14.3 %",
            "low": {
              "value": 11.1,
              "unit": "%"
            },
            "high": {
              "value": 14.3,
              "unit": "%"
            }
          }
        ],
        "extension": [
          {
            "url": "http://hl7.org/fhir/R4/specimen.html",
            "extension": [
              {
                "url": "specimen source",
                "valueString": "Blood"
              },
              {
                "url": "specimen collection time",
                "valueDateTime": "2021-12-08T15:55:00Z"
              },
              {
                "url": "specimen receive time",
                "valueDateTime": "2021-12-08T15:56:00Z"
              },
              {
                "url": "observation entry reference value",
                "valueString": "#Result.1.2.840.114350.1.13.478.3.7.2.798268.2032342.Comp9"
              }
            ]
          }
        ],
        "subject": {
          "reference": "Patient/1306b864-69fe-41b8-93e2-0735de8637d6"
        },
        "performer": [
          {
            "display": "VUMC CERNER LAB",
            "reference": "Organization/e3ece69c-0968-59c9-47dd-f16db731621a"
          }
        ]
      },
      "request": {
        "method": "PUT",
        "url": "Observation/bc0ecc5c-b599-f30a-0b48-f25c4d22befa"
      }
    },
    {
      "fullUrl": "urn:uuid:4f741ec7-b8b2-3e4c-68c7-0f2e1b44a1f8",
      "resource": {
        "resourceType": "Observation",
        "id": "4f741ec7-b8b2-3e4c-68c7-0f2e1b44a1f8",
        "meta": {
          "profile": [
            "http://hl7.org/fhir/us/core/StructureDefinition/us-core-observationresults"
          ],
          "source": [
            "ecr"
          ]
        },
        "identifier": [
          {
            "system": "urn:oid:1.2.840.114350.1.13.478.3.7.6.798268.2000",
            "value": "2032342.10"
          }
        ],
        "category": [
          {
            "coding": [
              {
                "system": "http://terminology.hl7.org/CodeSystem/observation-category",
                "code": "laboratory"
              }
            ]
          }
        ],
        "status": "final",
        "code": {
          "coding": [
            {
              "code": "777-3",
              "display": "Platelet",
              "system": "http://loinc.org"
            }
          ]
        },
        "effectiveDateTime": "2021-12-08T16:20:30Z",
        "valueQuantity": {
          "value": 209
        },
        "referenceRange": [
          {
            "text": "135 x10(3)/mcL - 371 x10(3)/mcL",
            "low": {
              "value": "135",
              "unit": "x10(3)/mcL"
            },
            "high": {
              "value": "371",
              "unit": "x10(3)/mcL"
            }
          }
        ],
        "extension": [
          {
            "url": "http://hl7.org/fhir/R4/specimen.html",
            "extension": [
              {
                "url": "specimen source",
                "valueString": "Blood"
              },
              {
                "url": "specimen collection time",
                "valueDateTime": "2021-12-08T15:55:00Z"
              },
              {
                "url": "specimen receive time",
                "valueDateTime": "2021-12-08T15:56:00Z"
              },
              {
                "url": "observation entry reference value",
                "valueString": "#Result.1.2.840.114350.1.13.478.3.7.2.798268.2032342.Comp10"
              }
            ]
          }
        ],
        "subject": {
          "reference": "Patient/1306b864-69fe-41b8-93e2-0735de8637d6"
        },
        "performer": [
          {
            "display": "VUMC CERNER LAB",
            "reference": "Organization/e3ece69c-0968-59c9-47dd-f16db731621a"
          }
        ]
      },
      "request": {
        "method": "PUT",
        "url": "Observation/4f741ec7-b8b2-3e4c-68c7-0f2e1b44a1f8"
      }
    },
    {
      "fullUrl": "urn:uuid:8836083b-0fcb-6948-e2da-5bd57c68799d",
      "resource": {
        "resourceType": "Observation",
        "id": "8836083b-0fcb-6948-e2da-5bd57c68799d",
        "meta": {
          "profile": [
            "http://hl7.org/fhir/us/core/StructureDefinition/us-core-observationresults"
          ],
          "source": [
            "ecr"
          ]
        },
        "identifier": [
          {
            "system": "urn:oid:1.2.840.114350.1.13.478.3.7.6.798268.2000",
            "value": "2032342.11"
          }
        ],
        "category": [
          {
            "coding": [
              {
                "system": "http://terminology.hl7.org/CodeSystem/observation-category",
                "code": "laboratory"
              }
            ]
          }
        ],
        "status": "final",
        "code": {
          "coding": [
            {
              "code": "32623-1",
              "display": "Mean Platelet Volume",
              "system": "http://loinc.org"
            }
          ]
        },
        "effectiveDateTime": "2021-12-08T16:20:30Z",
        "valueQuantity": {
          "value": 10.2,
          "unit": "fL"
        },
        "referenceRange": [
          {
            "text": "9.3 fL - 12.8 fL",
            "low": {
              "value": 9.3,
              "unit": "fL"
            },
            "high": {
              "value": 12.8,
              "unit": "fL"
            }
          }
        ],
        "extension": [
          {
            "url": "http://hl7.org/fhir/R4/specimen.html",
            "extension": [
              {
                "url": "specimen source",
                "valueString": "Blood"
              },
              {
                "url": "specimen collection time",
                "valueDateTime": "2021-12-08T15:55:00Z"
              },
              {
                "url": "specimen receive time",
                "valueDateTime": "2021-12-08T15:56:00Z"
              },
              {
                "url": "observation entry reference value",
                "valueString": "#Result.1.2.840.114350.1.13.478.3.7.2.798268.2032342.Comp11"
              }
            ]
          }
        ],
        "subject": {
          "reference": "Patient/1306b864-69fe-41b8-93e2-0735de8637d6"
        },
        "performer": [
          {
            "display": "VUMC CERNER LAB",
            "reference": "Organization/e3ece69c-0968-59c9-47dd-f16db731621a"
          }
        ]
      },
      "request": {
        "method": "PUT",
        "url": "Observation/8836083b-0fcb-6948-e2da-5bd57c68799d"
      }
    },
    {
      "fullUrl": "urn:uuid:675e472b-f894-3eed-3f2e-d605c200e09c",
      "resource": {
        "resourceType": "Observation",
        "id": "675e472b-f894-3eed-3f2e-d605c200e09c",
        "meta": {
          "profile": [
            "http://hl7.org/fhir/us/core/StructureDefinition/us-core-observationresults"
          ],
          "source": [
            "ecr"
          ]
        },
        "identifier": [
          {
            "system": "urn:oid:1.2.840.114350.1.13.478.3.7.6.798268.2000",
            "value": "2032342.12"
          }
        ],
        "category": [
          {
            "coding": [
              {
                "system": "http://terminology.hl7.org/CodeSystem/observation-category",
                "code": "laboratory"
              }
            ]
          }
        ],
        "status": "final",
        "code": {
          "coding": [
            {
              "code": "58413-6",
              "display": "Nucleated RBC",
              "system": "http://loinc.org"
            }
          ]
        },
        "effectiveDateTime": "2021-12-08T16:20:30Z",
        "valueQuantity": {
          "value": 0
        },
        "referenceRange": [
          {
            "text": "0 /100 WBC - 0 /100 WBC",
            "low": {
              "value": "0",
              "unit": "/100 WBC"
            },
            "high": {
              "value": "0",
              "unit": "/100 WBC"
            }
          }
        ],
        "extension": [
          {
            "url": "http://hl7.org/fhir/R4/specimen.html",
            "extension": [
              {
                "url": "specimen source",
                "valueString": "Blood"
              },
              {
                "url": "specimen collection time",
                "valueDateTime": "2021-12-08T15:55:00Z"
              },
              {
                "url": "specimen receive time",
                "valueDateTime": "2021-12-08T15:56:00Z"
              },
              {
                "url": "observation entry reference value",
                "valueString": "#Result.1.2.840.114350.1.13.478.3.7.2.798268.2032342.Comp12"
              }
            ]
          }
        ],
        "subject": {
          "reference": "Patient/1306b864-69fe-41b8-93e2-0735de8637d6"
        },
        "performer": [
          {
            "display": "VUMC CERNER LAB",
            "reference": "Organization/e3ece69c-0968-59c9-47dd-f16db731621a"
          }
        ]
      },
      "request": {
        "method": "PUT",
        "url": "Observation/675e472b-f894-3eed-3f2e-d605c200e09c"
      }
    },
    {
      "fullUrl": "urn:uuid:37196d63-2634-d19e-4406-dcdd35542713",
      "resource": {
        "resourceType": "Observation",
        "id": "37196d63-2634-d19e-4406-dcdd35542713",
        "meta": {
          "profile": [
            "http://hl7.org/fhir/us/core/StructureDefinition/us-core-observationresults"
          ],
          "source": [
            "ecr"
          ]
        },
        "identifier": [
          {
            "system": "urn:oid:1.2.840.114350.1.13.478.3.7.6.798268.2000",
            "value": "2032342.13"
          }
        ],
        "category": [
          {
            "coding": [
              {
                "system": "http://terminology.hl7.org/CodeSystem/observation-category",
                "code": "laboratory"
              }
            ]
          }
        ],
        "status": "final",
        "code": {
          "coding": [
            {
              "code": "771-6",
              "display": "Nucleated RBC Abs",
              "system": "http://loinc.org"
            }
          ]
        },
        "effectiveDateTime": "2021-12-08T16:20:30Z",
        "valueQuantity": {
          "value": 0.0
        },
        "referenceRange": [
          {
            "text": "0.00 x10(3)/mcL - 0.00 x10(3)/mcL",
            "low": {
              "value": "0.00",
              "unit": "x10(3)/mcL"
            },
            "high": {
              "value": "0.00",
              "unit": "x10(3)/mcL"
            }
          }
        ],
        "extension": [
          {
            "url": "http://hl7.org/fhir/R4/specimen.html",
            "extension": [
              {
                "url": "specimen source",
                "valueString": "Blood"
              },
              {
                "url": "specimen collection time",
                "valueDateTime": "2021-12-08T15:55:00Z"
              },
              {
                "url": "specimen receive time",
                "valueDateTime": "2021-12-08T15:56:00Z"
              },
              {
                "url": "observation entry reference value",
                "valueString": "#Result.1.2.840.114350.1.13.478.3.7.2.798268.2032342.Comp13"
              }
            ]
          }
        ],
        "subject": {
          "reference": "Patient/1306b864-69fe-41b8-93e2-0735de8637d6"
        },
        "performer": [
          {
            "display": "VUMC CERNER LAB",
            "reference": "Organization/e3ece69c-0968-59c9-47dd-f16db731621a"
          }
        ]
      },
      "request": {
        "method": "PUT",
        "url": "Observation/37196d63-2634-d19e-4406-dcdd35542713"
      }
    },
    {
      "fullUrl": "urn:uuid:057167fd-1ba9-b13c-7ef7-49c0ac6d11bd",
      "resource": {
        "resourceType": "Observation",
        "id": "057167fd-1ba9-b13c-7ef7-49c0ac6d11bd",
        "meta": {
          "profile": [
            "http://hl7.org/fhir/us/core/StructureDefinition/us-core-observationresults"
          ],
          "source": [
            "ecr"
          ]
        },
        "identifier": [
          {
            "system": "urn:oid:1.2.840.114350.1.13.478.3.7.2.798268",
            "value": "2032342"
          }
        ],
        "category": [
          {
            "coding": [
              {
                "system": "http://terminology.hl7.org/CodeSystem/observation-category",
                "code": "laboratory"
              }
            ]
          }
        ],
        "status": "final",
        "code": {
          "coding": [
            {
              "code": "56850-1",
              "display": "Lab Interpretation",
              "system": "http://loinc.org"
            }
          ]
        },
        "effectiveDateTime": "2021-12-08T16:20:30Z",
        "valueString": "Abnormal",
        "extension": [
          {
            "url": "http://hl7.org/fhir/R4/specimen.html",
            "extension": [
              {
                "url": "specimen source",
                "valueString": "Blood"
              },
              {
                "url": "specimen collection time",
                "valueDateTime": "2021-12-08T15:55:00Z"
              },
              {
                "url": "specimen receive time",
                "valueDateTime": "2021-12-08T15:56:00Z"
              }
            ]
          }
        ],
        "subject": {
          "reference": "Patient/1306b864-69fe-41b8-93e2-0735de8637d6"
        }
      },
      "request": {
        "method": "PUT",
        "url": "Observation/057167fd-1ba9-b13c-7ef7-49c0ac6d11bd"
      }
    },
    {
      "fullUrl": "urn:uuid:59f23cfc-81c9-df20-5512-ac5c8e22e2de",
      "resource": {
        "resourceType": "DiagnosticReport",
        "id": "59f23cfc-81c9-df20-5512-ac5c8e22e2de",
        "identifier": [
          {
            "system": "urn:oid:1.2.840.114350.1.13.478.3.7.2.798268",
            "value": "2048488"
          }
        ],
        "status": "final",
        "code": {
          "coding": [
            {
              "code": "1698",
              "display": "CBC",
              "system": "urn:oid:1.2.840.114350.1.13.478.3.7.2.696580"
            }
          ]
        },
        "effectivePeriod": {
          "start": "2022-01-27T20:39:00Z",
          "end": "2022-01-27T20:39:00Z"
        },
        "subject": {
          "reference": "Patient/1306b864-69fe-41b8-93e2-0735de8637d6"
        },
        "performer": [
          {
            "reference": "Organization/22c6cdd0-bde1-e220-9ba4-2c2802f795ad"
          }
        ],
        "result": [
          {
            "reference": "Observation/08bebd10-46c7-afaa-7579-db7dbcf67199"
          },
          {
            "reference": "Observation/bcb610db-f86f-d026-b113-d206c4f30661"
          },
          {
            "reference": "Observation/d048cb3b-5457-e303-526b-d281d99da388"
          },
          {
            "reference": "Observation/bc7d40f8-005a-9d77-60b3-8a5de7f72dab"
          },
          {
            "reference": "Observation/6e3525ee-c28d-7222-49bb-e6c6f9030cd5"
          },
          {
            "reference": "Observation/f12504a8-e1a6-c17d-a1aa-cbc7a012017f"
          },
          {
            "reference": "Observation/f1c7216a-d26d-6023-6d34-56860d66ce87"
          },
          {
            "reference": "Observation/6d7f8523-8586-3a09-f059-d4d6899a907e"
          },
          {
            "reference": "Observation/a502ab3e-d552-a69c-5075-1c35b6903a02"
          },
          {
            "reference": "Observation/f6ecbbf1-31de-a5ac-a7bc-5da5d3870342"
          },
          {
            "reference": "Observation/1aa7f990-3e04-ba40-a098-08c3a4ffe8cb"
          },
          {
            "reference": "Observation/8ba6faca-d990-a28e-c639-4b376b0c4d59"
          },
          {
            "reference": "Observation/57c990a8-2417-9e93-7b38-55c92b5996f2"
          },
          {
            "reference": "Observation/7fc6dad0-95d5-2383-9c4d-506d2a74cdf5"
          }
        ],
        "meta": {
          "source": [
            "ecr"
          ]
        }
      },
      "request": {
        "method": "PUT",
        "url": "DiagnosticReport/59f23cfc-81c9-df20-5512-ac5c8e22e2de"
      }
    },
    {
      "fullUrl": "urn:uuid:08bebd10-46c7-afaa-7579-db7dbcf67199",
      "resource": {
        "resourceType": "Observation",
        "id": "08bebd10-46c7-afaa-7579-db7dbcf67199",
        "meta": {
          "profile": [
            "http://hl7.org/fhir/us/core/StructureDefinition/us-core-observationresults"
          ],
          "source": [
            "ecr"
          ]
        },
        "identifier": [
          {
            "system": "urn:oid:1.2.840.114350.1.13.478.3.7.6.798268.2000",
            "value": "2048488.1"
          }
        ],
        "category": [
          {
            "coding": [
              {
                "system": "http://terminology.hl7.org/CodeSystem/observation-category",
                "code": "laboratory"
              }
            ]
          }
        ],
        "status": "final",
        "code": {
          "coding": [
            {
              "code": "6690-2",
              "display": "White Blood Cells",
              "system": "http://loinc.org"
            }
          ]
        },
        "effectiveDateTime": "2022-01-27T21:17:49Z",
        "valueQuantity": {
          "value": 18.7
        },
        "referenceRange": [
          {
            "text": "3.9 x10(3)/mcL - 10.7 x10(3)/mcL",
            "low": {
              "value": "3.9",
              "unit": "x10(3)/mcL"
            },
            "high": {
              "value": "10.7",
              "unit": "x10(3)/mcL"
            }
          }
        ],
        "interpretation": [
          {
            "coding": [
              {
                "code": "H",
                "display": "High",
                "system": "http://terminology.hl7.org/CodeSystem/v3-ObservationInterpretation"
              }
            ]
          }
        ],
        "extension": [
          {
            "url": "http://hl7.org/fhir/R4/specimen.html",
            "extension": [
              {
                "url": "specimen source",
                "valueString": "Blood"
              },
              {
                "url": "specimen collection time",
                "valueDateTime": "2022-01-27T20:39:00Z"
              },
              {
                "url": "specimen receive time",
                "valueDateTime": "2022-01-27T20:41:00Z"
              },
              {
                "url": "observation entry reference value",
                "valueString": "#Result.1.2.840.114350.1.13.478.3.7.2.798268.2048488.Comp1"
              }
            ]
          }
        ],
        "subject": {
          "reference": "Patient/1306b864-69fe-41b8-93e2-0735de8637d6"
        },
        "performer": [
          {
            "display": "VUMC CERNER LAB",
            "reference": "Organization/e3ece69c-0968-59c9-47dd-f16db731621a"
          }
        ]
      },
      "request": {
        "method": "PUT",
        "url": "Observation/08bebd10-46c7-afaa-7579-db7dbcf67199"
      }
    },
    {
      "fullUrl": "urn:uuid:bcb610db-f86f-d026-b113-d206c4f30661",
      "resource": {
        "resourceType": "Observation",
        "id": "bcb610db-f86f-d026-b113-d206c4f30661",
        "meta": {
          "profile": [
            "http://hl7.org/fhir/us/core/StructureDefinition/us-core-observationresults"
          ],
          "source": [
            "ecr"
          ]
        },
        "identifier": [
          {
            "system": "urn:oid:1.2.840.114350.1.13.478.3.7.6.798268.2000",
            "value": "2048488.2"
          }
        ],
        "category": [
          {
            "coding": [
              {
                "system": "http://terminology.hl7.org/CodeSystem/observation-category",
                "code": "laboratory"
              }
            ]
          }
        ],
        "status": "final",
        "code": {
          "coding": [
            {
              "code": "789-8",
              "display": "Red Blood Cells",
              "system": "http://loinc.org"
            }
          ]
        },
        "effectiveDateTime": "2022-01-27T21:17:49Z",
        "valueQuantity": {
          "value": 2.81
        },
        "referenceRange": [
          {
            "text": "4.00 x10(6)/mcL - 5.50 x10(6)/mcL",
            "low": {
              "value": "4.00",
              "unit": "x10(6)/mcL"
            },
            "high": {
              "value": "5.50",
              "unit": "x10(6)/mcL"
            }
          }
        ],
        "interpretation": [
          {
            "coding": [
              {
                "code": "L",
                "display": "Low",
                "system": "http://terminology.hl7.org/CodeSystem/v3-ObservationInterpretation"
              }
            ]
          }
        ],
        "extension": [
          {
            "url": "http://hl7.org/fhir/R4/specimen.html",
            "extension": [
              {
                "url": "specimen source",
                "valueString": "Blood"
              },
              {
                "url": "specimen collection time",
                "valueDateTime": "2022-01-27T20:39:00Z"
              },
              {
                "url": "specimen receive time",
                "valueDateTime": "2022-01-27T20:41:00Z"
              },
              {
                "url": "observation entry reference value",
                "valueString": "#Result.1.2.840.114350.1.13.478.3.7.2.798268.2048488.Comp2"
              }
            ]
          }
        ],
        "subject": {
          "reference": "Patient/1306b864-69fe-41b8-93e2-0735de8637d6"
        },
        "performer": [
          {
            "display": "VUMC CERNER LAB",
            "reference": "Organization/e3ece69c-0968-59c9-47dd-f16db731621a"
          }
        ]
      },
      "request": {
        "method": "PUT",
        "url": "Observation/bcb610db-f86f-d026-b113-d206c4f30661"
      }
    },
    {
      "fullUrl": "urn:uuid:d048cb3b-5457-e303-526b-d281d99da388",
      "resource": {
        "resourceType": "Observation",
        "id": "d048cb3b-5457-e303-526b-d281d99da388",
        "meta": {
          "profile": [
            "http://hl7.org/fhir/us/core/StructureDefinition/us-core-observationresults"
          ],
          "source": [
            "ecr"
          ]
        },
        "identifier": [
          {
            "system": "urn:oid:1.2.840.114350.1.13.478.3.7.6.798268.2000",
            "value": "2048488.3"
          }
        ],
        "category": [
          {
            "coding": [
              {
                "system": "http://terminology.hl7.org/CodeSystem/observation-category",
                "code": "laboratory"
              }
            ]
          }
        ],
        "status": "final",
        "code": {
          "coding": [
            {
              "code": "718-7",
              "display": "Hemoglobin",
              "system": "http://loinc.org"
            }
          ]
        },
        "effectiveDateTime": "2022-01-27T21:17:49Z",
        "valueQuantity": {
          "value": 9.2
        },
        "referenceRange": [
          {
            "text": "11.8 gm/dL - 16.0 gm/dL",
            "low": {
              "value": "11.8",
              "unit": "gm/dL"
            },
            "high": {
              "value": "16.0",
              "unit": "gm/dL"
            }
          }
        ],
        "interpretation": [
          {
            "coding": [
              {
                "code": "L",
                "display": "Low",
                "system": "http://terminology.hl7.org/CodeSystem/v3-ObservationInterpretation"
              }
            ]
          }
        ],
        "extension": [
          {
            "url": "http://hl7.org/fhir/R4/specimen.html",
            "extension": [
              {
                "url": "specimen source",
                "valueString": "Blood"
              },
              {
                "url": "specimen collection time",
                "valueDateTime": "2022-01-27T20:39:00Z"
              },
              {
                "url": "specimen receive time",
                "valueDateTime": "2022-01-27T20:41:00Z"
              },
              {
                "url": "observation entry reference value",
                "valueString": "#Result.1.2.840.114350.1.13.478.3.7.2.798268.2048488.Comp3"
              }
            ]
          }
        ],
        "subject": {
          "reference": "Patient/1306b864-69fe-41b8-93e2-0735de8637d6"
        },
        "performer": [
          {
            "display": "VUMC CERNER LAB",
            "reference": "Organization/e3ece69c-0968-59c9-47dd-f16db731621a"
          }
        ]
      },
      "request": {
        "method": "PUT",
        "url": "Observation/d048cb3b-5457-e303-526b-d281d99da388"
      }
    },
    {
      "fullUrl": "urn:uuid:bc7d40f8-005a-9d77-60b3-8a5de7f72dab",
      "resource": {
        "resourceType": "Observation",
        "id": "bc7d40f8-005a-9d77-60b3-8a5de7f72dab",
        "meta": {
          "profile": [
            "http://hl7.org/fhir/us/core/StructureDefinition/us-core-observationresults"
          ],
          "source": [
            "ecr"
          ]
        },
        "identifier": [
          {
            "system": "urn:oid:1.2.840.114350.1.13.478.3.7.6.798268.2000",
            "value": "2048488.4"
          }
        ],
        "category": [
          {
            "coding": [
              {
                "system": "http://terminology.hl7.org/CodeSystem/observation-category",
                "code": "laboratory"
              }
            ]
          }
        ],
        "status": "final",
        "code": {
          "coding": [
            {
              "code": "4544-3",
              "display": "Hematocrit",
              "system": "http://loinc.org"
            }
          ]
        },
        "effectiveDateTime": "2022-01-27T21:17:49Z",
        "valueQuantity": {
          "value": 30,
          "unit": "%"
        },
        "referenceRange": [
          {
            "text": "36 % - 43 %",
            "low": {
              "value": 36,
              "unit": "%"
            },
            "high": {
              "value": 43,
              "unit": "%"
            }
          }
        ],
        "interpretation": [
          {
            "coding": [
              {
                "code": "L",
                "display": "Low",
                "system": "http://terminology.hl7.org/CodeSystem/v3-ObservationInterpretation"
              }
            ]
          }
        ],
        "extension": [
          {
            "url": "http://hl7.org/fhir/R4/specimen.html",
            "extension": [
              {
                "url": "specimen source",
                "valueString": "Blood"
              },
              {
                "url": "specimen collection time",
                "valueDateTime": "2022-01-27T20:39:00Z"
              },
              {
                "url": "specimen receive time",
                "valueDateTime": "2022-01-27T20:41:00Z"
              },
              {
                "url": "observation entry reference value",
                "valueString": "#Result.1.2.840.114350.1.13.478.3.7.2.798268.2048488.Comp4"
              }
            ]
          }
        ],
        "subject": {
          "reference": "Patient/1306b864-69fe-41b8-93e2-0735de8637d6"
        },
        "performer": [
          {
            "display": "VUMC CERNER LAB",
            "reference": "Organization/e3ece69c-0968-59c9-47dd-f16db731621a"
          }
        ]
      },
      "request": {
        "method": "PUT",
        "url": "Observation/bc7d40f8-005a-9d77-60b3-8a5de7f72dab"
      }
    },
    {
      "fullUrl": "urn:uuid:6e3525ee-c28d-7222-49bb-e6c6f9030cd5",
      "resource": {
        "resourceType": "Observation",
        "id": "6e3525ee-c28d-7222-49bb-e6c6f9030cd5",
        "meta": {
          "profile": [
            "http://hl7.org/fhir/us/core/StructureDefinition/us-core-observationresults"
          ],
          "source": [
            "ecr"
          ]
        },
        "identifier": [
          {
            "system": "urn:oid:1.2.840.114350.1.13.478.3.7.6.798268.2000",
            "value": "2048488.5"
          }
        ],
        "category": [
          {
            "coding": [
              {
                "system": "http://terminology.hl7.org/CodeSystem/observation-category",
                "code": "laboratory"
              }
            ]
          }
        ],
        "status": "final",
        "code": {
          "coding": [
            {
              "code": "787-2",
              "display": "Mean Cell Volume",
              "system": "http://loinc.org"
            }
          ]
        },
        "effectiveDateTime": "2022-01-27T21:17:49Z",
        "valueQuantity": {
          "value": 106,
          "unit": "fL"
        },
        "referenceRange": [
          {
            "text": "81 fL - 98 fL",
            "low": {
              "value": 81,
              "unit": "fL"
            },
            "high": {
              "value": 98,
              "unit": "fL"
            }
          }
        ],
        "interpretation": [
          {
            "coding": [
              {
                "code": "H",
                "display": "High",
                "system": "http://terminology.hl7.org/CodeSystem/v3-ObservationInterpretation"
              }
            ]
          }
        ],
        "extension": [
          {
            "url": "http://hl7.org/fhir/R4/specimen.html",
            "extension": [
              {
                "url": "specimen source",
                "valueString": "Blood"
              },
              {
                "url": "specimen collection time",
                "valueDateTime": "2022-01-27T20:39:00Z"
              },
              {
                "url": "specimen receive time",
                "valueDateTime": "2022-01-27T20:41:00Z"
              },
              {
                "url": "observation entry reference value",
                "valueString": "#Result.1.2.840.114350.1.13.478.3.7.2.798268.2048488.Comp5"
              }
            ]
          }
        ],
        "subject": {
          "reference": "Patient/1306b864-69fe-41b8-93e2-0735de8637d6"
        },
        "performer": [
          {
            "display": "VUMC CERNER LAB",
            "reference": "Organization/e3ece69c-0968-59c9-47dd-f16db731621a"
          }
        ]
      },
      "request": {
        "method": "PUT",
        "url": "Observation/6e3525ee-c28d-7222-49bb-e6c6f9030cd5"
      }
    },
    {
      "fullUrl": "urn:uuid:f12504a8-e1a6-c17d-a1aa-cbc7a012017f",
      "resource": {
        "resourceType": "Observation",
        "id": "f12504a8-e1a6-c17d-a1aa-cbc7a012017f",
        "meta": {
          "profile": [
            "http://hl7.org/fhir/us/core/StructureDefinition/us-core-observationresults"
          ],
          "source": [
            "ecr"
          ]
        },
        "identifier": [
          {
            "system": "urn:oid:1.2.840.114350.1.13.478.3.7.6.798268.2000",
            "value": "2048488.6"
          }
        ],
        "category": [
          {
            "coding": [
              {
                "system": "http://terminology.hl7.org/CodeSystem/observation-category",
                "code": "laboratory"
              }
            ]
          }
        ],
        "status": "final",
        "code": {
          "coding": [
            {
              "code": "785-6",
              "display": "Mean Cell Hemoglobin",
              "system": "http://loinc.org"
            }
          ]
        },
        "effectiveDateTime": "2022-01-27T21:17:49Z",
        "valueQuantity": {
          "value": 32.7,
          "unit": "pg"
        },
        "referenceRange": [
          {
            "text": "27.0 pg - 32.0 pg",
            "low": {
              "value": 27.0,
              "unit": "pg"
            },
            "high": {
              "value": 32.0,
              "unit": "pg"
            }
          }
        ],
        "interpretation": [
          {
            "coding": [
              {
                "code": "H",
                "display": "High",
                "system": "http://terminology.hl7.org/CodeSystem/v3-ObservationInterpretation"
              }
            ]
          }
        ],
        "extension": [
          {
            "url": "http://hl7.org/fhir/R4/specimen.html",
            "extension": [
              {
                "url": "specimen source",
                "valueString": "Blood"
              },
              {
                "url": "specimen collection time",
                "valueDateTime": "2022-01-27T20:39:00Z"
              },
              {
                "url": "specimen receive time",
                "valueDateTime": "2022-01-27T20:41:00Z"
              },
              {
                "url": "observation entry reference value",
                "valueString": "#Result.1.2.840.114350.1.13.478.3.7.2.798268.2048488.Comp6"
              }
            ]
          }
        ],
        "subject": {
          "reference": "Patient/1306b864-69fe-41b8-93e2-0735de8637d6"
        },
        "performer": [
          {
            "display": "VUMC CERNER LAB",
            "reference": "Organization/e3ece69c-0968-59c9-47dd-f16db731621a"
          }
        ]
      },
      "request": {
        "method": "PUT",
        "url": "Observation/f12504a8-e1a6-c17d-a1aa-cbc7a012017f"
      }
    },
    {
      "fullUrl": "urn:uuid:f1c7216a-d26d-6023-6d34-56860d66ce87",
      "resource": {
        "resourceType": "Observation",
        "id": "f1c7216a-d26d-6023-6d34-56860d66ce87",
        "meta": {
          "profile": [
            "http://hl7.org/fhir/us/core/StructureDefinition/us-core-observationresults"
          ],
          "source": [
            "ecr"
          ]
        },
        "identifier": [
          {
            "system": "urn:oid:1.2.840.114350.1.13.478.3.7.6.798268.2000",
            "value": "2048488.7"
          }
        ],
        "category": [
          {
            "coding": [
              {
                "system": "http://terminology.hl7.org/CodeSystem/observation-category",
                "code": "laboratory"
              }
            ]
          }
        ],
        "status": "final",
        "code": {
          "coding": [
            {
              "code": "786-4",
              "display": "Mean Cell Hemoglobin Concentration",
              "system": "http://loinc.org"
            }
          ]
        },
        "effectiveDateTime": "2022-01-27T21:17:49Z",
        "valueQuantity": {
          "value": 30.9
        },
        "referenceRange": [
          {
            "text": "31.0 gm/dL - 35.0 gm/dL",
            "low": {
              "value": "31.0",
              "unit": "gm/dL"
            },
            "high": {
              "value": "35.0",
              "unit": "gm/dL"
            }
          }
        ],
        "interpretation": [
          {
            "coding": [
              {
                "code": "L",
                "display": "Low",
                "system": "http://terminology.hl7.org/CodeSystem/v3-ObservationInterpretation"
              }
            ]
          }
        ],
        "extension": [
          {
            "url": "http://hl7.org/fhir/R4/specimen.html",
            "extension": [
              {
                "url": "specimen source",
                "valueString": "Blood"
              },
              {
                "url": "specimen collection time",
                "valueDateTime": "2022-01-27T20:39:00Z"
              },
              {
                "url": "specimen receive time",
                "valueDateTime": "2022-01-27T20:41:00Z"
              },
              {
                "url": "observation entry reference value",
                "valueString": "#Result.1.2.840.114350.1.13.478.3.7.2.798268.2048488.Comp7"
              }
            ]
          }
        ],
        "subject": {
          "reference": "Patient/1306b864-69fe-41b8-93e2-0735de8637d6"
        },
        "performer": [
          {
            "display": "VUMC CERNER LAB",
            "reference": "Organization/e3ece69c-0968-59c9-47dd-f16db731621a"
          }
        ]
      },
      "request": {
        "method": "PUT",
        "url": "Observation/f1c7216a-d26d-6023-6d34-56860d66ce87"
      }
    },
    {
      "fullUrl": "urn:uuid:6d7f8523-8586-3a09-f059-d4d6899a907e",
      "resource": {
        "resourceType": "Observation",
        "id": "6d7f8523-8586-3a09-f059-d4d6899a907e",
        "meta": {
          "profile": [
            "http://hl7.org/fhir/us/core/StructureDefinition/us-core-observationresults"
          ],
          "source": [
            "ecr"
          ]
        },
        "identifier": [
          {
            "system": "urn:oid:1.2.840.114350.1.13.478.3.7.6.798268.2000",
            "value": "2048488.8"
          }
        ],
        "category": [
          {
            "coding": [
              {
                "system": "http://terminology.hl7.org/CodeSystem/observation-category",
                "code": "laboratory"
              }
            ]
          }
        ],
        "status": "final",
        "code": {
          "coding": [
            {
              "code": "21000-5",
              "display": "RDW SD",
              "system": "http://loinc.org"
            }
          ]
        },
        "effectiveDateTime": "2022-01-27T21:17:49Z",
        "valueQuantity": {
          "value": 57.2,
          "unit": "fL"
        },
        "referenceRange": [
          {
            "text": "37.4 fL - 52.4 fL",
            "low": {
              "value": 37.4,
              "unit": "fL"
            },
            "high": {
              "value": 52.4,
              "unit": "fL"
            }
          }
        ],
        "interpretation": [
          {
            "coding": [
              {
                "code": "H",
                "display": "High",
                "system": "http://terminology.hl7.org/CodeSystem/v3-ObservationInterpretation"
              }
            ]
          }
        ],
        "extension": [
          {
            "url": "http://hl7.org/fhir/R4/specimen.html",
            "extension": [
              {
                "url": "specimen source",
                "valueString": "Blood"
              },
              {
                "url": "specimen collection time",
                "valueDateTime": "2022-01-27T20:39:00Z"
              },
              {
                "url": "specimen receive time",
                "valueDateTime": "2022-01-27T20:41:00Z"
              },
              {
                "url": "observation entry reference value",
                "valueString": "#Result.1.2.840.114350.1.13.478.3.7.2.798268.2048488.Comp8"
              }
            ]
          }
        ],
        "subject": {
          "reference": "Patient/1306b864-69fe-41b8-93e2-0735de8637d6"
        },
        "performer": [
          {
            "display": "VUMC CERNER LAB",
            "reference": "Organization/e3ece69c-0968-59c9-47dd-f16db731621a"
          }
        ]
      },
      "request": {
        "method": "PUT",
        "url": "Observation/6d7f8523-8586-3a09-f059-d4d6899a907e"
      }
    },
    {
      "fullUrl": "urn:uuid:a502ab3e-d552-a69c-5075-1c35b6903a02",
      "resource": {
        "resourceType": "Observation",
        "id": "a502ab3e-d552-a69c-5075-1c35b6903a02",
        "meta": {
          "profile": [
            "http://hl7.org/fhir/us/core/StructureDefinition/us-core-observationresults"
          ],
          "source": [
            "ecr"
          ]
        },
        "identifier": [
          {
            "system": "urn:oid:1.2.840.114350.1.13.478.3.7.6.798268.2000",
            "value": "2048488.9"
          }
        ],
        "category": [
          {
            "coding": [
              {
                "system": "http://terminology.hl7.org/CodeSystem/observation-category",
                "code": "laboratory"
              }
            ]
          }
        ],
        "status": "final",
        "code": {
          "coding": [
            {
              "code": "788-0",
              "display": "RDW CV",
              "system": "http://loinc.org"
            }
          ]
        },
        "effectiveDateTime": "2022-01-27T21:17:49Z",
        "valueQuantity": {
          "value": 14.6,
          "unit": "%"
        },
        "referenceRange": [
          {
            "text": "11.1 % - 14.3 %",
            "low": {
              "value": 11.1,
              "unit": "%"
            },
            "high": {
              "value": 14.3,
              "unit": "%"
            }
          }
        ],
        "interpretation": [
          {
            "coding": [
              {
                "code": "H",
                "display": "High",
                "system": "http://terminology.hl7.org/CodeSystem/v3-ObservationInterpretation"
              }
            ]
          }
        ],
        "extension": [
          {
            "url": "http://hl7.org/fhir/R4/specimen.html",
            "extension": [
              {
                "url": "specimen source",
                "valueString": "Blood"
              },
              {
                "url": "specimen collection time",
                "valueDateTime": "2022-01-27T20:39:00Z"
              },
              {
                "url": "specimen receive time",
                "valueDateTime": "2022-01-27T20:41:00Z"
              },
              {
                "url": "observation entry reference value",
                "valueString": "#Result.1.2.840.114350.1.13.478.3.7.2.798268.2048488.Comp9"
              }
            ]
          }
        ],
        "subject": {
          "reference": "Patient/1306b864-69fe-41b8-93e2-0735de8637d6"
        },
        "performer": [
          {
            "display": "VUMC CERNER LAB",
            "reference": "Organization/e3ece69c-0968-59c9-47dd-f16db731621a"
          }
        ]
      },
      "request": {
        "method": "PUT",
        "url": "Observation/a502ab3e-d552-a69c-5075-1c35b6903a02"
      }
    },
    {
      "fullUrl": "urn:uuid:f6ecbbf1-31de-a5ac-a7bc-5da5d3870342",
      "resource": {
        "resourceType": "Observation",
        "id": "f6ecbbf1-31de-a5ac-a7bc-5da5d3870342",
        "meta": {
          "profile": [
            "http://hl7.org/fhir/us/core/StructureDefinition/us-core-observationresults"
          ],
          "source": [
            "ecr"
          ]
        },
        "identifier": [
          {
            "system": "urn:oid:1.2.840.114350.1.13.478.3.7.6.798268.2000",
            "value": "2048488.10"
          }
        ],
        "category": [
          {
            "coding": [
              {
                "system": "http://terminology.hl7.org/CodeSystem/observation-category",
                "code": "laboratory"
              }
            ]
          }
        ],
        "status": "final",
        "code": {
          "coding": [
            {
              "code": "777-3",
              "display": "Platelet",
              "system": "http://loinc.org"
            }
          ]
        },
        "effectiveDateTime": "2022-01-27T21:17:49Z",
        "valueQuantity": {
          "value": 123
        },
        "referenceRange": [
          {
            "text": "135 x10(3)/mcL - 371 x10(3)/mcL",
            "low": {
              "value": "135",
              "unit": "x10(3)/mcL"
            },
            "high": {
              "value": "371",
              "unit": "x10(3)/mcL"
            }
          }
        ],
        "interpretation": [
          {
            "coding": [
              {
                "code": "L",
                "display": "Low",
                "system": "http://terminology.hl7.org/CodeSystem/v3-ObservationInterpretation"
              }
            ]
          }
        ],
        "extension": [
          {
            "url": "http://hl7.org/fhir/R4/specimen.html",
            "extension": [
              {
                "url": "specimen source",
                "valueString": "Blood"
              },
              {
                "url": "specimen collection time",
                "valueDateTime": "2022-01-27T20:39:00Z"
              },
              {
                "url": "specimen receive time",
                "valueDateTime": "2022-01-27T20:41:00Z"
              },
              {
                "url": "observation entry reference value",
                "valueString": "#Result.1.2.840.114350.1.13.478.3.7.2.798268.2048488.Comp10"
              }
            ]
          }
        ],
        "subject": {
          "reference": "Patient/1306b864-69fe-41b8-93e2-0735de8637d6"
        },
        "performer": [
          {
            "display": "VUMC CERNER LAB",
            "reference": "Organization/e3ece69c-0968-59c9-47dd-f16db731621a"
          }
        ]
      },
      "request": {
        "method": "PUT",
        "url": "Observation/f6ecbbf1-31de-a5ac-a7bc-5da5d3870342"
      }
    },
    {
      "fullUrl": "urn:uuid:1aa7f990-3e04-ba40-a098-08c3a4ffe8cb",
      "resource": {
        "resourceType": "Observation",
        "id": "1aa7f990-3e04-ba40-a098-08c3a4ffe8cb",
        "meta": {
          "profile": [
            "http://hl7.org/fhir/us/core/StructureDefinition/us-core-observationresults"
          ],
          "source": [
            "ecr"
          ]
        },
        "identifier": [
          {
            "system": "urn:oid:1.2.840.114350.1.13.478.3.7.6.798268.2000",
            "value": "2048488.11"
          }
        ],
        "category": [
          {
            "coding": [
              {
                "system": "http://terminology.hl7.org/CodeSystem/observation-category",
                "code": "laboratory"
              }
            ]
          }
        ],
        "status": "final",
        "code": {
          "coding": [
            {
              "code": "32623-1",
              "display": "Mean Platelet Volume",
              "system": "http://loinc.org"
            }
          ]
        },
        "effectiveDateTime": "2022-01-27T21:17:49Z",
        "valueQuantity": {
          "value": 10.8,
          "unit": "fL"
        },
        "referenceRange": [
          {
            "text": "9.3 fL - 12.8 fL",
            "low": {
              "value": 9.3,
              "unit": "fL"
            },
            "high": {
              "value": 12.8,
              "unit": "fL"
            }
          }
        ],
        "extension": [
          {
            "url": "http://hl7.org/fhir/R4/specimen.html",
            "extension": [
              {
                "url": "specimen source",
                "valueString": "Blood"
              },
              {
                "url": "specimen collection time",
                "valueDateTime": "2022-01-27T20:39:00Z"
              },
              {
                "url": "specimen receive time",
                "valueDateTime": "2022-01-27T20:41:00Z"
              },
              {
                "url": "observation entry reference value",
                "valueString": "#Result.1.2.840.114350.1.13.478.3.7.2.798268.2048488.Comp11"
              }
            ]
          }
        ],
        "subject": {
          "reference": "Patient/1306b864-69fe-41b8-93e2-0735de8637d6"
        },
        "performer": [
          {
            "display": "VUMC CERNER LAB",
            "reference": "Organization/e3ece69c-0968-59c9-47dd-f16db731621a"
          }
        ]
      },
      "request": {
        "method": "PUT",
        "url": "Observation/1aa7f990-3e04-ba40-a098-08c3a4ffe8cb"
      }
    },
    {
      "fullUrl": "urn:uuid:8ba6faca-d990-a28e-c639-4b376b0c4d59",
      "resource": {
        "resourceType": "Observation",
        "id": "8ba6faca-d990-a28e-c639-4b376b0c4d59",
        "meta": {
          "profile": [
            "http://hl7.org/fhir/us/core/StructureDefinition/us-core-observationresults"
          ],
          "source": [
            "ecr"
          ]
        },
        "identifier": [
          {
            "system": "urn:oid:1.2.840.114350.1.13.478.3.7.6.798268.2000",
            "value": "2048488.12"
          }
        ],
        "category": [
          {
            "coding": [
              {
                "system": "http://terminology.hl7.org/CodeSystem/observation-category",
                "code": "laboratory"
              }
            ]
          }
        ],
        "status": "final",
        "code": {
          "coding": [
            {
              "code": "58413-6",
              "display": "Nucleated RBC",
              "system": "http://loinc.org"
            }
          ]
        },
        "effectiveDateTime": "2022-01-27T21:17:49Z",
        "valueQuantity": {
          "value": 0
        },
        "referenceRange": [
          {
            "text": "0 /100 WBC - 0 /100 WBC",
            "low": {
              "value": "0",
              "unit": "/100 WBC"
            },
            "high": {
              "value": "0",
              "unit": "/100 WBC"
            }
          }
        ],
        "extension": [
          {
            "url": "http://hl7.org/fhir/R4/specimen.html",
            "extension": [
              {
                "url": "specimen source",
                "valueString": "Blood"
              },
              {
                "url": "specimen collection time",
                "valueDateTime": "2022-01-27T20:39:00Z"
              },
              {
                "url": "specimen receive time",
                "valueDateTime": "2022-01-27T20:41:00Z"
              },
              {
                "url": "observation entry reference value",
                "valueString": "#Result.1.2.840.114350.1.13.478.3.7.2.798268.2048488.Comp12"
              }
            ]
          }
        ],
        "subject": {
          "reference": "Patient/1306b864-69fe-41b8-93e2-0735de8637d6"
        },
        "performer": [
          {
            "display": "VUMC CERNER LAB",
            "reference": "Organization/e3ece69c-0968-59c9-47dd-f16db731621a"
          }
        ]
      },
      "request": {
        "method": "PUT",
        "url": "Observation/8ba6faca-d990-a28e-c639-4b376b0c4d59"
      }
    },
    {
      "fullUrl": "urn:uuid:57c990a8-2417-9e93-7b38-55c92b5996f2",
      "resource": {
        "resourceType": "Observation",
        "id": "57c990a8-2417-9e93-7b38-55c92b5996f2",
        "meta": {
          "profile": [
            "http://hl7.org/fhir/us/core/StructureDefinition/us-core-observationresults"
          ],
          "source": [
            "ecr"
          ]
        },
        "identifier": [
          {
            "system": "urn:oid:1.2.840.114350.1.13.478.3.7.6.798268.2000",
            "value": "2048488.13"
          }
        ],
        "category": [
          {
            "coding": [
              {
                "system": "http://terminology.hl7.org/CodeSystem/observation-category",
                "code": "laboratory"
              }
            ]
          }
        ],
        "status": "final",
        "code": {
          "coding": [
            {
              "code": "771-6",
              "display": "Nucleated RBC Abs",
              "system": "http://loinc.org"
            }
          ]
        },
        "effectiveDateTime": "2022-01-27T21:17:49Z",
        "valueQuantity": {
          "value": 0.05
        },
        "referenceRange": [
          {
            "text": "0.00 x10(3)/mcL - 0.00 x10(3)/mcL",
            "low": {
              "value": "0.00",
              "unit": "x10(3)/mcL"
            },
            "high": {
              "value": "0.00",
              "unit": "x10(3)/mcL"
            }
          }
        ],
        "interpretation": [
          {
            "coding": [
              {
                "code": "H",
                "display": "High",
                "system": "http://terminology.hl7.org/CodeSystem/v3-ObservationInterpretation"
              }
            ]
          }
        ],
        "extension": [
          {
            "url": "http://hl7.org/fhir/R4/specimen.html",
            "extension": [
              {
                "url": "specimen source",
                "valueString": "Blood"
              },
              {
                "url": "specimen collection time",
                "valueDateTime": "2022-01-27T20:39:00Z"
              },
              {
                "url": "specimen receive time",
                "valueDateTime": "2022-01-27T20:41:00Z"
              },
              {
                "url": "observation entry reference value",
                "valueString": "#Result.1.2.840.114350.1.13.478.3.7.2.798268.2048488.Comp13"
              }
            ]
          }
        ],
        "subject": {
          "reference": "Patient/1306b864-69fe-41b8-93e2-0735de8637d6"
        },
        "performer": [
          {
            "display": "VUMC CERNER LAB",
            "reference": "Organization/e3ece69c-0968-59c9-47dd-f16db731621a"
          }
        ]
      },
      "request": {
        "method": "PUT",
        "url": "Observation/57c990a8-2417-9e93-7b38-55c92b5996f2"
      }
    },
    {
      "fullUrl": "urn:uuid:7fc6dad0-95d5-2383-9c4d-506d2a74cdf5",
      "resource": {
        "resourceType": "Observation",
        "id": "7fc6dad0-95d5-2383-9c4d-506d2a74cdf5",
        "meta": {
          "profile": [
            "http://hl7.org/fhir/us/core/StructureDefinition/us-core-observationresults"
          ],
          "source": [
            "ecr"
          ]
        },
        "identifier": [
          {
            "system": "urn:oid:1.2.840.114350.1.13.478.3.7.2.798268",
            "value": "2048488"
          }
        ],
        "category": [
          {
            "coding": [
              {
                "system": "http://terminology.hl7.org/CodeSystem/observation-category",
                "code": "laboratory"
              }
            ]
          }
        ],
        "status": "final",
        "code": {
          "coding": [
            {
              "code": "56850-1",
              "display": "Lab Interpretation",
              "system": "http://loinc.org"
            }
          ]
        },
        "effectiveDateTime": "2022-01-27T21:17:49Z",
        "valueString": "Abnormal",
        "extension": [
          {
            "url": "http://hl7.org/fhir/R4/specimen.html",
            "extension": [
              {
                "url": "specimen source",
                "valueString": "Blood"
              },
              {
                "url": "specimen collection time",
                "valueDateTime": "2022-01-27T20:39:00Z"
              },
              {
                "url": "specimen receive time",
                "valueDateTime": "2022-01-27T20:41:00Z"
              }
            ]
          }
        ],
        "subject": {
          "reference": "Patient/1306b864-69fe-41b8-93e2-0735de8637d6"
        }
      },
      "request": {
        "method": "PUT",
        "url": "Observation/7fc6dad0-95d5-2383-9c4d-506d2a74cdf5"
      }
    },
    {
      "fullUrl": "urn:uuid:82034824-7a93-7a3c-d2f8-c5764f8ea472",
      "resource": {
        "resourceType": "DiagnosticReport",
        "id": "82034824-7a93-7a3c-d2f8-c5764f8ea472",
        "identifier": [
          {
            "system": "urn:oid:1.2.840.114350.1.13.478.3.7.2.798268",
            "value": "2061354"
          }
        ],
        "status": "final",
        "code": {
          "coding": [
            {
              "code": "1698",
              "display": "CBC",
              "system": "urn:oid:1.2.840.114350.1.13.478.3.7.2.696580"
            }
          ]
        },
        "effectivePeriod": {
          "start": "2022-04-11T15:23:00Z",
          "end": "2022-04-11T15:23:00Z"
        },
        "subject": {
          "reference": "Patient/1306b864-69fe-41b8-93e2-0735de8637d6"
        },
        "performer": [
          {
            "reference": "Organization/22c6cdd0-bde1-e220-9ba4-2c2802f795ad"
          }
        ],
        "result": [
          {
            "reference": "Observation/178491a0-df27-4f61-6d22-1d94218997ae"
          },
          {
            "reference": "Observation/c74b6ad4-eefe-0802-be9b-99637fc58970"
          },
          {
            "reference": "Observation/391633e4-a2d6-01d8-52de-b458d6da5acb"
          },
          {
            "reference": "Observation/1b4145f2-0c77-1a84-02c5-1affbc4a5b79"
          },
          {
            "reference": "Observation/a5cb1603-ea38-327b-2bb1-f0f42e1e3e03"
          },
          {
            "reference": "Observation/6c6aee8f-cd9f-1886-d125-e4e4c21d38ef"
          },
          {
            "reference": "Observation/1a3992c8-4357-d0b6-8198-a01c97810cd0"
          },
          {
            "reference": "Observation/27ebd947-6849-8baf-9cc7-2e66c0bd00c5"
          },
          {
            "reference": "Observation/06bc25f5-a4d7-c0a5-fc83-528cd3f3393f"
          },
          {
            "reference": "Observation/bd6f0850-53f6-b52b-2d2c-afd1959a4753"
          },
          {
            "reference": "Observation/df0d53b4-b6e6-d2cc-cbad-e14888d2c182"
          },
          {
            "reference": "Observation/2ba602cd-1684-1b1b-c282-dda3d3a3fc8f"
          },
          {
            "reference": "Observation/eaf12bb3-c230-343c-ab8c-0a0c4348c8ff"
          },
          {
            "reference": "Observation/cb9681f4-ec4b-b7f9-974f-d3872cafa9c4"
          }
        ],
        "meta": {
          "source": [
            "ecr"
          ]
        }
      },
      "request": {
        "method": "PUT",
        "url": "DiagnosticReport/82034824-7a93-7a3c-d2f8-c5764f8ea472"
      }
    },
    {
      "fullUrl": "urn:uuid:178491a0-df27-4f61-6d22-1d94218997ae",
      "resource": {
        "resourceType": "Observation",
        "id": "178491a0-df27-4f61-6d22-1d94218997ae",
        "meta": {
          "profile": [
            "http://hl7.org/fhir/us/core/StructureDefinition/us-core-observationresults"
          ],
          "source": [
            "ecr"
          ]
        },
        "identifier": [
          {
            "system": "urn:oid:1.2.840.114350.1.13.478.3.7.6.798268.2000",
            "value": "2061354.1"
          }
        ],
        "category": [
          {
            "coding": [
              {
                "system": "http://terminology.hl7.org/CodeSystem/observation-category",
                "code": "laboratory"
              }
            ]
          }
        ],
        "status": "final",
        "code": {
          "coding": [
            {
              "code": "6690-2",
              "display": "White Blood Cells",
              "system": "http://loinc.org"
            }
          ]
        },
        "effectiveDateTime": "2022-04-11T20:16:30Z",
        "valueQuantity": {
          "value": 10.9
        },
        "referenceRange": [
          {
            "text": "3.9 x10(3)/mcL - 10.7 x10(3)/mcL",
            "low": {
              "value": "3.9",
              "unit": "x10(3)/mcL"
            },
            "high": {
              "value": "10.7",
              "unit": "x10(3)/mcL"
            }
          }
        ],
        "interpretation": [
          {
            "coding": [
              {
                "code": "H",
                "display": "High",
                "system": "http://terminology.hl7.org/CodeSystem/v3-ObservationInterpretation"
              }
            ]
          }
        ],
        "extension": [
          {
            "url": "http://hl7.org/fhir/R4/specimen.html",
            "extension": [
              {
                "url": "specimen source",
                "valueString": "Blood"
              },
              {
                "url": "specimen collection time",
                "valueDateTime": "2022-04-11T15:23:00Z"
              },
              {
                "url": "specimen receive time",
                "valueDateTime": "2022-04-11T15:24:00Z"
              },
              {
                "url": "observation entry reference value",
                "valueString": "#Result.1.2.840.114350.1.13.478.3.7.2.798268.2061354.Comp1"
              }
            ]
          }
        ],
        "subject": {
          "reference": "Patient/1306b864-69fe-41b8-93e2-0735de8637d6"
        },
        "performer": [
          {
            "display": "VUMC CERNER LAB",
            "reference": "Organization/e3ece69c-0968-59c9-47dd-f16db731621a"
          }
        ]
      },
      "request": {
        "method": "PUT",
        "url": "Observation/178491a0-df27-4f61-6d22-1d94218997ae"
      }
    },
    {
      "fullUrl": "urn:uuid:c74b6ad4-eefe-0802-be9b-99637fc58970",
      "resource": {
        "resourceType": "Observation",
        "id": "c74b6ad4-eefe-0802-be9b-99637fc58970",
        "meta": {
          "profile": [
            "http://hl7.org/fhir/us/core/StructureDefinition/us-core-observationresults"
          ],
          "source": [
            "ecr"
          ]
        },
        "identifier": [
          {
            "system": "urn:oid:1.2.840.114350.1.13.478.3.7.6.798268.2000",
            "value": "2061354.2"
          }
        ],
        "category": [
          {
            "coding": [
              {
                "system": "http://terminology.hl7.org/CodeSystem/observation-category",
                "code": "laboratory"
              }
            ]
          }
        ],
        "status": "final",
        "code": {
          "coding": [
            {
              "code": "789-8",
              "display": "Red Blood Cells",
              "system": "http://loinc.org"
            }
          ]
        },
        "effectiveDateTime": "2022-04-11T20:16:30Z",
        "valueQuantity": {
          "value": 4.91
        },
        "referenceRange": [
          {
            "text": "4.00 x10(6)/mcL - 5.50 x10(6)/mcL",
            "low": {
              "value": "4.00",
              "unit": "x10(6)/mcL"
            },
            "high": {
              "value": "5.50",
              "unit": "x10(6)/mcL"
            }
          }
        ],
        "extension": [
          {
            "url": "http://hl7.org/fhir/R4/specimen.html",
            "extension": [
              {
                "url": "specimen source",
                "valueString": "Blood"
              },
              {
                "url": "specimen collection time",
                "valueDateTime": "2022-04-11T15:23:00Z"
              },
              {
                "url": "specimen receive time",
                "valueDateTime": "2022-04-11T15:24:00Z"
              },
              {
                "url": "observation entry reference value",
                "valueString": "#Result.1.2.840.114350.1.13.478.3.7.2.798268.2061354.Comp2"
              }
            ]
          }
        ],
        "subject": {
          "reference": "Patient/1306b864-69fe-41b8-93e2-0735de8637d6"
        },
        "performer": [
          {
            "display": "VUMC CERNER LAB",
            "reference": "Organization/e3ece69c-0968-59c9-47dd-f16db731621a"
          }
        ]
      },
      "request": {
        "method": "PUT",
        "url": "Observation/c74b6ad4-eefe-0802-be9b-99637fc58970"
      }
    },
    {
      "fullUrl": "urn:uuid:391633e4-a2d6-01d8-52de-b458d6da5acb",
      "resource": {
        "resourceType": "Observation",
        "id": "391633e4-a2d6-01d8-52de-b458d6da5acb",
        "meta": {
          "profile": [
            "http://hl7.org/fhir/us/core/StructureDefinition/us-core-observationresults"
          ],
          "source": [
            "ecr"
          ]
        },
        "identifier": [
          {
            "system": "urn:oid:1.2.840.114350.1.13.478.3.7.6.798268.2000",
            "value": "2061354.3"
          }
        ],
        "category": [
          {
            "coding": [
              {
                "system": "http://terminology.hl7.org/CodeSystem/observation-category",
                "code": "laboratory"
              }
            ]
          }
        ],
        "status": "final",
        "code": {
          "coding": [
            {
              "code": "718-7",
              "display": "Hemoglobin",
              "system": "http://loinc.org"
            }
          ]
        },
        "effectiveDateTime": "2022-04-11T20:16:30Z",
        "valueQuantity": {
          "value": 14.9
        },
        "referenceRange": [
          {
            "text": "11.8 gm/dL - 16.0 gm/dL",
            "low": {
              "value": "11.8",
              "unit": "gm/dL"
            },
            "high": {
              "value": "16.0",
              "unit": "gm/dL"
            }
          }
        ],
        "extension": [
          {
            "url": "http://hl7.org/fhir/R4/specimen.html",
            "extension": [
              {
                "url": "specimen source",
                "valueString": "Blood"
              },
              {
                "url": "specimen collection time",
                "valueDateTime": "2022-04-11T15:23:00Z"
              },
              {
                "url": "specimen receive time",
                "valueDateTime": "2022-04-11T15:24:00Z"
              },
              {
                "url": "observation entry reference value",
                "valueString": "#Result.1.2.840.114350.1.13.478.3.7.2.798268.2061354.Comp3"
              }
            ]
          }
        ],
        "subject": {
          "reference": "Patient/1306b864-69fe-41b8-93e2-0735de8637d6"
        },
        "performer": [
          {
            "display": "VUMC CERNER LAB",
            "reference": "Organization/e3ece69c-0968-59c9-47dd-f16db731621a"
          }
        ]
      },
      "request": {
        "method": "PUT",
        "url": "Observation/391633e4-a2d6-01d8-52de-b458d6da5acb"
      }
    },
    {
      "fullUrl": "urn:uuid:1b4145f2-0c77-1a84-02c5-1affbc4a5b79",
      "resource": {
        "resourceType": "Observation",
        "id": "1b4145f2-0c77-1a84-02c5-1affbc4a5b79",
        "meta": {
          "profile": [
            "http://hl7.org/fhir/us/core/StructureDefinition/us-core-observationresults"
          ],
          "source": [
            "ecr"
          ]
        },
        "identifier": [
          {
            "system": "urn:oid:1.2.840.114350.1.13.478.3.7.6.798268.2000",
            "value": "2061354.4"
          }
        ],
        "category": [
          {
            "coding": [
              {
                "system": "http://terminology.hl7.org/CodeSystem/observation-category",
                "code": "laboratory"
              }
            ]
          }
        ],
        "status": "final",
        "code": {
          "coding": [
            {
              "code": "4544-3",
              "display": "Hematocrit",
              "system": "http://loinc.org"
            }
          ]
        },
        "effectiveDateTime": "2022-04-11T20:16:30Z",
        "valueQuantity": {
          "value": 46,
          "unit": "%"
        },
        "referenceRange": [
          {
            "text": "36 % - 43 %",
            "low": {
              "value": 36,
              "unit": "%"
            },
            "high": {
              "value": 43,
              "unit": "%"
            }
          }
        ],
        "interpretation": [
          {
            "coding": [
              {
                "code": "H",
                "display": "High",
                "system": "http://terminology.hl7.org/CodeSystem/v3-ObservationInterpretation"
              }
            ]
          }
        ],
        "extension": [
          {
            "url": "http://hl7.org/fhir/R4/specimen.html",
            "extension": [
              {
                "url": "specimen source",
                "valueString": "Blood"
              },
              {
                "url": "specimen collection time",
                "valueDateTime": "2022-04-11T15:23:00Z"
              },
              {
                "url": "specimen receive time",
                "valueDateTime": "2022-04-11T15:24:00Z"
              },
              {
                "url": "observation entry reference value",
                "valueString": "#Result.1.2.840.114350.1.13.478.3.7.2.798268.2061354.Comp4"
              }
            ]
          }
        ],
        "subject": {
          "reference": "Patient/1306b864-69fe-41b8-93e2-0735de8637d6"
        },
        "performer": [
          {
            "display": "VUMC CERNER LAB",
            "reference": "Organization/e3ece69c-0968-59c9-47dd-f16db731621a"
          }
        ]
      },
      "request": {
        "method": "PUT",
        "url": "Observation/1b4145f2-0c77-1a84-02c5-1affbc4a5b79"
      }
    },
    {
      "fullUrl": "urn:uuid:a5cb1603-ea38-327b-2bb1-f0f42e1e3e03",
      "resource": {
        "resourceType": "Observation",
        "id": "a5cb1603-ea38-327b-2bb1-f0f42e1e3e03",
        "meta": {
          "profile": [
            "http://hl7.org/fhir/us/core/StructureDefinition/us-core-observationresults"
          ],
          "source": [
            "ecr"
          ]
        },
        "identifier": [
          {
            "system": "urn:oid:1.2.840.114350.1.13.478.3.7.6.798268.2000",
            "value": "2061354.5"
          }
        ],
        "category": [
          {
            "coding": [
              {
                "system": "http://terminology.hl7.org/CodeSystem/observation-category",
                "code": "laboratory"
              }
            ]
          }
        ],
        "status": "final",
        "code": {
          "coding": [
            {
              "code": "787-2",
              "display": "Mean Cell Volume",
              "system": "http://loinc.org"
            }
          ]
        },
        "effectiveDateTime": "2022-04-11T20:16:30Z",
        "valueQuantity": {
          "value": 93,
          "unit": "fL"
        },
        "referenceRange": [
          {
            "text": "81 fL - 98 fL",
            "low": {
              "value": 81,
              "unit": "fL"
            },
            "high": {
              "value": 98,
              "unit": "fL"
            }
          }
        ],
        "extension": [
          {
            "url": "http://hl7.org/fhir/R4/specimen.html",
            "extension": [
              {
                "url": "specimen source",
                "valueString": "Blood"
              },
              {
                "url": "specimen collection time",
                "valueDateTime": "2022-04-11T15:23:00Z"
              },
              {
                "url": "specimen receive time",
                "valueDateTime": "2022-04-11T15:24:00Z"
              },
              {
                "url": "observation entry reference value",
                "valueString": "#Result.1.2.840.114350.1.13.478.3.7.2.798268.2061354.Comp5"
              }
            ]
          }
        ],
        "subject": {
          "reference": "Patient/1306b864-69fe-41b8-93e2-0735de8637d6"
        },
        "performer": [
          {
            "display": "VUMC CERNER LAB",
            "reference": "Organization/e3ece69c-0968-59c9-47dd-f16db731621a"
          }
        ]
      },
      "request": {
        "method": "PUT",
        "url": "Observation/a5cb1603-ea38-327b-2bb1-f0f42e1e3e03"
      }
    },
    {
      "fullUrl": "urn:uuid:6c6aee8f-cd9f-1886-d125-e4e4c21d38ef",
      "resource": {
        "resourceType": "Observation",
        "id": "6c6aee8f-cd9f-1886-d125-e4e4c21d38ef",
        "meta": {
          "profile": [
            "http://hl7.org/fhir/us/core/StructureDefinition/us-core-observationresults"
          ],
          "source": [
            "ecr"
          ]
        },
        "identifier": [
          {
            "system": "urn:oid:1.2.840.114350.1.13.478.3.7.6.798268.2000",
            "value": "2061354.6"
          }
        ],
        "category": [
          {
            "coding": [
              {
                "system": "http://terminology.hl7.org/CodeSystem/observation-category",
                "code": "laboratory"
              }
            ]
          }
        ],
        "status": "final",
        "code": {
          "coding": [
            {
              "code": "785-6",
              "display": "Mean Cell Hemoglobin",
              "system": "http://loinc.org"
            }
          ]
        },
        "effectiveDateTime": "2022-04-11T20:16:30Z",
        "valueQuantity": {
          "value": 30.3,
          "unit": "pg"
        },
        "referenceRange": [
          {
            "text": "27.0 pg - 32.0 pg",
            "low": {
              "value": 27.0,
              "unit": "pg"
            },
            "high": {
              "value": 32.0,
              "unit": "pg"
            }
          }
        ],
        "extension": [
          {
            "url": "http://hl7.org/fhir/R4/specimen.html",
            "extension": [
              {
                "url": "specimen source",
                "valueString": "Blood"
              },
              {
                "url": "specimen collection time",
                "valueDateTime": "2022-04-11T15:23:00Z"
              },
              {
                "url": "specimen receive time",
                "valueDateTime": "2022-04-11T15:24:00Z"
              },
              {
                "url": "observation entry reference value",
                "valueString": "#Result.1.2.840.114350.1.13.478.3.7.2.798268.2061354.Comp6"
              }
            ]
          }
        ],
        "subject": {
          "reference": "Patient/1306b864-69fe-41b8-93e2-0735de8637d6"
        },
        "performer": [
          {
            "display": "VUMC CERNER LAB",
            "reference": "Organization/e3ece69c-0968-59c9-47dd-f16db731621a"
          }
        ]
      },
      "request": {
        "method": "PUT",
        "url": "Observation/6c6aee8f-cd9f-1886-d125-e4e4c21d38ef"
      }
    },
    {
      "fullUrl": "urn:uuid:1a3992c8-4357-d0b6-8198-a01c97810cd0",
      "resource": {
        "resourceType": "Observation",
        "id": "1a3992c8-4357-d0b6-8198-a01c97810cd0",
        "meta": {
          "profile": [
            "http://hl7.org/fhir/us/core/StructureDefinition/us-core-observationresults"
          ],
          "source": [
            "ecr"
          ]
        },
        "identifier": [
          {
            "system": "urn:oid:1.2.840.114350.1.13.478.3.7.6.798268.2000",
            "value": "2061354.7"
          }
        ],
        "category": [
          {
            "coding": [
              {
                "system": "http://terminology.hl7.org/CodeSystem/observation-category",
                "code": "laboratory"
              }
            ]
          }
        ],
        "status": "final",
        "code": {
          "coding": [
            {
              "code": "786-4",
              "display": "Mean Cell Hemoglobin Concentration",
              "system": "http://loinc.org"
            }
          ]
        },
        "effectiveDateTime": "2022-04-11T20:16:30Z",
        "valueQuantity": {
          "value": 32.7
        },
        "referenceRange": [
          {
            "text": "31.0 gm/dL - 35.0 gm/dL",
            "low": {
              "value": "31.0",
              "unit": "gm/dL"
            },
            "high": {
              "value": "35.0",
              "unit": "gm/dL"
            }
          }
        ],
        "extension": [
          {
            "url": "http://hl7.org/fhir/R4/specimen.html",
            "extension": [
              {
                "url": "specimen source",
                "valueString": "Blood"
              },
              {
                "url": "specimen collection time",
                "valueDateTime": "2022-04-11T15:23:00Z"
              },
              {
                "url": "specimen receive time",
                "valueDateTime": "2022-04-11T15:24:00Z"
              },
              {
                "url": "observation entry reference value",
                "valueString": "#Result.1.2.840.114350.1.13.478.3.7.2.798268.2061354.Comp7"
              }
            ]
          }
        ],
        "subject": {
          "reference": "Patient/1306b864-69fe-41b8-93e2-0735de8637d6"
        },
        "performer": [
          {
            "display": "VUMC CERNER LAB",
            "reference": "Organization/e3ece69c-0968-59c9-47dd-f16db731621a"
          }
        ]
      },
      "request": {
        "method": "PUT",
        "url": "Observation/1a3992c8-4357-d0b6-8198-a01c97810cd0"
      }
    },
    {
      "fullUrl": "urn:uuid:27ebd947-6849-8baf-9cc7-2e66c0bd00c5",
      "resource": {
        "resourceType": "Observation",
        "id": "27ebd947-6849-8baf-9cc7-2e66c0bd00c5",
        "meta": {
          "profile": [
            "http://hl7.org/fhir/us/core/StructureDefinition/us-core-observationresults"
          ],
          "source": [
            "ecr"
          ]
        },
        "identifier": [
          {
            "system": "urn:oid:1.2.840.114350.1.13.478.3.7.6.798268.2000",
            "value": "2061354.8"
          }
        ],
        "category": [
          {
            "coding": [
              {
                "system": "http://terminology.hl7.org/CodeSystem/observation-category",
                "code": "laboratory"
              }
            ]
          }
        ],
        "status": "final",
        "code": {
          "coding": [
            {
              "code": "21000-5",
              "display": "RDW SD",
              "system": "http://loinc.org"
            }
          ]
        },
        "effectiveDateTime": "2022-04-11T20:16:30Z",
        "valueQuantity": {
          "value": 51.0,
          "unit": "fL"
        },
        "referenceRange": [
          {
            "text": "37.4 fL - 52.4 fL",
            "low": {
              "value": 37.4,
              "unit": "fL"
            },
            "high": {
              "value": 52.4,
              "unit": "fL"
            }
          }
        ],
        "extension": [
          {
            "url": "http://hl7.org/fhir/R4/specimen.html",
            "extension": [
              {
                "url": "specimen source",
                "valueString": "Blood"
              },
              {
                "url": "specimen collection time",
                "valueDateTime": "2022-04-11T15:23:00Z"
              },
              {
                "url": "specimen receive time",
                "valueDateTime": "2022-04-11T15:24:00Z"
              },
              {
                "url": "observation entry reference value",
                "valueString": "#Result.1.2.840.114350.1.13.478.3.7.2.798268.2061354.Comp8"
              }
            ]
          }
        ],
        "subject": {
          "reference": "Patient/1306b864-69fe-41b8-93e2-0735de8637d6"
        },
        "performer": [
          {
            "display": "VUMC CERNER LAB",
            "reference": "Organization/e3ece69c-0968-59c9-47dd-f16db731621a"
          }
        ]
      },
      "request": {
        "method": "PUT",
        "url": "Observation/27ebd947-6849-8baf-9cc7-2e66c0bd00c5"
      }
    },
    {
      "fullUrl": "urn:uuid:06bc25f5-a4d7-c0a5-fc83-528cd3f3393f",
      "resource": {
        "resourceType": "Observation",
        "id": "06bc25f5-a4d7-c0a5-fc83-528cd3f3393f",
        "meta": {
          "profile": [
            "http://hl7.org/fhir/us/core/StructureDefinition/us-core-observationresults"
          ],
          "source": [
            "ecr"
          ]
        },
        "identifier": [
          {
            "system": "urn:oid:1.2.840.114350.1.13.478.3.7.6.798268.2000",
            "value": "2061354.9"
          }
        ],
        "category": [
          {
            "coding": [
              {
                "system": "http://terminology.hl7.org/CodeSystem/observation-category",
                "code": "laboratory"
              }
            ]
          }
        ],
        "status": "final",
        "code": {
          "coding": [
            {
              "code": "788-0",
              "display": "RDW CV",
              "system": "http://loinc.org"
            }
          ]
        },
        "effectiveDateTime": "2022-04-11T20:16:30Z",
        "valueQuantity": {
          "value": 15.0,
          "unit": "%"
        },
        "referenceRange": [
          {
            "text": "11.1 % - 14.3 %",
            "low": {
              "value": 11.1,
              "unit": "%"
            },
            "high": {
              "value": 14.3,
              "unit": "%"
            }
          }
        ],
        "interpretation": [
          {
            "coding": [
              {
                "code": "H",
                "display": "High",
                "system": "http://terminology.hl7.org/CodeSystem/v3-ObservationInterpretation"
              }
            ]
          }
        ],
        "extension": [
          {
            "url": "http://hl7.org/fhir/R4/specimen.html",
            "extension": [
              {
                "url": "specimen source",
                "valueString": "Blood"
              },
              {
                "url": "specimen collection time",
                "valueDateTime": "2022-04-11T15:23:00Z"
              },
              {
                "url": "specimen receive time",
                "valueDateTime": "2022-04-11T15:24:00Z"
              },
              {
                "url": "observation entry reference value",
                "valueString": "#Result.1.2.840.114350.1.13.478.3.7.2.798268.2061354.Comp9"
              }
            ]
          }
        ],
        "subject": {
          "reference": "Patient/1306b864-69fe-41b8-93e2-0735de8637d6"
        },
        "performer": [
          {
            "display": "VUMC CERNER LAB",
            "reference": "Organization/e3ece69c-0968-59c9-47dd-f16db731621a"
          }
        ]
      },
      "request": {
        "method": "PUT",
        "url": "Observation/06bc25f5-a4d7-c0a5-fc83-528cd3f3393f"
      }
    },
    {
      "fullUrl": "urn:uuid:bd6f0850-53f6-b52b-2d2c-afd1959a4753",
      "resource": {
        "resourceType": "Observation",
        "id": "bd6f0850-53f6-b52b-2d2c-afd1959a4753",
        "meta": {
          "profile": [
            "http://hl7.org/fhir/us/core/StructureDefinition/us-core-observationresults"
          ],
          "source": [
            "ecr"
          ]
        },
        "identifier": [
          {
            "system": "urn:oid:1.2.840.114350.1.13.478.3.7.6.798268.2000",
            "value": "2061354.10"
          }
        ],
        "category": [
          {
            "coding": [
              {
                "system": "http://terminology.hl7.org/CodeSystem/observation-category",
                "code": "laboratory"
              }
            ]
          }
        ],
        "status": "final",
        "code": {
          "coding": [
            {
              "code": "777-3",
              "display": "Platelet",
              "system": "http://loinc.org"
            }
          ]
        },
        "effectiveDateTime": "2022-04-11T20:16:30Z",
        "valueQuantity": {
          "value": 88
        },
        "referenceRange": [
          {
            "text": "135 x10(3)/mcL - 371 x10(3)/mcL",
            "low": {
              "value": "135",
              "unit": "x10(3)/mcL"
            },
            "high": {
              "value": "371",
              "unit": "x10(3)/mcL"
            }
          }
        ],
        "interpretation": [
          {
            "coding": [
              {
                "code": "L",
                "display": "Low",
                "system": "http://terminology.hl7.org/CodeSystem/v3-ObservationInterpretation"
              }
            ]
          }
        ],
        "extension": [
          {
            "url": "http://hl7.org/fhir/R4/specimen.html",
            "extension": [
              {
                "url": "specimen source",
                "valueString": "Blood"
              },
              {
                "url": "specimen collection time",
                "valueDateTime": "2022-04-11T15:23:00Z"
              },
              {
                "url": "specimen receive time",
                "valueDateTime": "2022-04-11T15:24:00Z"
              },
              {
                "url": "observation entry reference value",
                "valueString": "#Result.1.2.840.114350.1.13.478.3.7.2.798268.2061354.Comp10"
              }
            ]
          }
        ],
        "subject": {
          "reference": "Patient/1306b864-69fe-41b8-93e2-0735de8637d6"
        },
        "performer": [
          {
            "display": "VUMC CERNER LAB",
            "reference": "Organization/e3ece69c-0968-59c9-47dd-f16db731621a"
          }
        ]
      },
      "request": {
        "method": "PUT",
        "url": "Observation/bd6f0850-53f6-b52b-2d2c-afd1959a4753"
      }
    },
    {
      "fullUrl": "urn:uuid:df0d53b4-b6e6-d2cc-cbad-e14888d2c182",
      "resource": {
        "resourceType": "Observation",
        "id": "df0d53b4-b6e6-d2cc-cbad-e14888d2c182",
        "meta": {
          "profile": [
            "http://hl7.org/fhir/us/core/StructureDefinition/us-core-observationresults"
          ],
          "source": [
            "ecr"
          ]
        },
        "identifier": [
          {
            "system": "urn:oid:1.2.840.114350.1.13.478.3.7.6.798268.2000",
            "value": "2061354.11"
          }
        ],
        "category": [
          {
            "coding": [
              {
                "system": "http://terminology.hl7.org/CodeSystem/observation-category",
                "code": "laboratory"
              }
            ]
          }
        ],
        "status": "final",
        "code": {
          "coding": [
            {
              "code": "32623-1",
              "display": "Mean Platelet Volume",
              "system": "http://loinc.org"
            }
          ]
        },
        "effectiveDateTime": "2022-04-11T20:16:30Z",
        "valueQuantity": {
          "value": 10.4,
          "unit": "fL"
        },
        "referenceRange": [
          {
            "text": "9.3 fL - 12.8 fL",
            "low": {
              "value": 9.3,
              "unit": "fL"
            },
            "high": {
              "value": 12.8,
              "unit": "fL"
            }
          }
        ],
        "extension": [
          {
            "url": "http://hl7.org/fhir/R4/specimen.html",
            "extension": [
              {
                "url": "specimen source",
                "valueString": "Blood"
              },
              {
                "url": "specimen collection time",
                "valueDateTime": "2022-04-11T15:23:00Z"
              },
              {
                "url": "specimen receive time",
                "valueDateTime": "2022-04-11T15:24:00Z"
              },
              {
                "url": "observation entry reference value",
                "valueString": "#Result.1.2.840.114350.1.13.478.3.7.2.798268.2061354.Comp11"
              }
            ]
          }
        ],
        "subject": {
          "reference": "Patient/1306b864-69fe-41b8-93e2-0735de8637d6"
        },
        "performer": [
          {
            "display": "VUMC CERNER LAB",
            "reference": "Organization/e3ece69c-0968-59c9-47dd-f16db731621a"
          }
        ]
      },
      "request": {
        "method": "PUT",
        "url": "Observation/df0d53b4-b6e6-d2cc-cbad-e14888d2c182"
      }
    },
    {
      "fullUrl": "urn:uuid:2ba602cd-1684-1b1b-c282-dda3d3a3fc8f",
      "resource": {
        "resourceType": "Observation",
        "id": "2ba602cd-1684-1b1b-c282-dda3d3a3fc8f",
        "meta": {
          "profile": [
            "http://hl7.org/fhir/us/core/StructureDefinition/us-core-observationresults"
          ],
          "source": [
            "ecr"
          ]
        },
        "identifier": [
          {
            "system": "urn:oid:1.2.840.114350.1.13.478.3.7.6.798268.2000",
            "value": "2061354.12"
          }
        ],
        "category": [
          {
            "coding": [
              {
                "system": "http://terminology.hl7.org/CodeSystem/observation-category",
                "code": "laboratory"
              }
            ]
          }
        ],
        "status": "final",
        "code": {
          "coding": [
            {
              "code": "58413-6",
              "display": "Nucleated RBC",
              "system": "http://loinc.org"
            }
          ]
        },
        "effectiveDateTime": "2022-04-11T20:16:30Z",
        "valueQuantity": {
          "value": 0
        },
        "referenceRange": [
          {
            "text": "0 /100 WBC - 0 /100 WBC",
            "low": {
              "value": "0",
              "unit": "/100 WBC"
            },
            "high": {
              "value": "0",
              "unit": "/100 WBC"
            }
          }
        ],
        "extension": [
          {
            "url": "http://hl7.org/fhir/R4/specimen.html",
            "extension": [
              {
                "url": "specimen source",
                "valueString": "Blood"
              },
              {
                "url": "specimen collection time",
                "valueDateTime": "2022-04-11T15:23:00Z"
              },
              {
                "url": "specimen receive time",
                "valueDateTime": "2022-04-11T15:24:00Z"
              },
              {
                "url": "observation entry reference value",
                "valueString": "#Result.1.2.840.114350.1.13.478.3.7.2.798268.2061354.Comp12"
              }
            ]
          }
        ],
        "subject": {
          "reference": "Patient/1306b864-69fe-41b8-93e2-0735de8637d6"
        },
        "performer": [
          {
            "display": "VUMC CERNER LAB",
            "reference": "Organization/e3ece69c-0968-59c9-47dd-f16db731621a"
          }
        ]
      },
      "request": {
        "method": "PUT",
        "url": "Observation/2ba602cd-1684-1b1b-c282-dda3d3a3fc8f"
      }
    },
    {
      "fullUrl": "urn:uuid:eaf12bb3-c230-343c-ab8c-0a0c4348c8ff",
      "resource": {
        "resourceType": "Observation",
        "id": "eaf12bb3-c230-343c-ab8c-0a0c4348c8ff",
        "meta": {
          "profile": [
            "http://hl7.org/fhir/us/core/StructureDefinition/us-core-observationresults"
          ],
          "source": [
            "ecr"
          ]
        },
        "identifier": [
          {
            "system": "urn:oid:1.2.840.114350.1.13.478.3.7.6.798268.2000",
            "value": "2061354.13"
          }
        ],
        "category": [
          {
            "coding": [
              {
                "system": "http://terminology.hl7.org/CodeSystem/observation-category",
                "code": "laboratory"
              }
            ]
          }
        ],
        "status": "final",
        "code": {
          "coding": [
            {
              "code": "771-6",
              "display": "Nucleated RBC Abs",
              "system": "http://loinc.org"
            }
          ]
        },
        "effectiveDateTime": "2022-04-11T20:16:30Z",
        "valueQuantity": {
          "value": 0.0
        },
        "referenceRange": [
          {
            "text": "0.00 x10(3)/mcL - 0.00 x10(3)/mcL",
            "low": {
              "value": "0.00",
              "unit": "x10(3)/mcL"
            },
            "high": {
              "value": "0.00",
              "unit": "x10(3)/mcL"
            }
          }
        ],
        "extension": [
          {
            "url": "http://hl7.org/fhir/R4/specimen.html",
            "extension": [
              {
                "url": "specimen source",
                "valueString": "Blood"
              },
              {
                "url": "specimen collection time",
                "valueDateTime": "2022-04-11T15:23:00Z"
              },
              {
                "url": "specimen receive time",
                "valueDateTime": "2022-04-11T15:24:00Z"
              },
              {
                "url": "observation entry reference value",
                "valueString": "#Result.1.2.840.114350.1.13.478.3.7.2.798268.2061354.Comp13"
              }
            ]
          }
        ],
        "subject": {
          "reference": "Patient/1306b864-69fe-41b8-93e2-0735de8637d6"
        },
        "performer": [
          {
            "display": "VUMC CERNER LAB",
            "reference": "Organization/e3ece69c-0968-59c9-47dd-f16db731621a"
          }
        ]
      },
      "request": {
        "method": "PUT",
        "url": "Observation/eaf12bb3-c230-343c-ab8c-0a0c4348c8ff"
      }
    },
    {
      "fullUrl": "urn:uuid:cb9681f4-ec4b-b7f9-974f-d3872cafa9c4",
      "resource": {
        "resourceType": "Observation",
        "id": "cb9681f4-ec4b-b7f9-974f-d3872cafa9c4",
        "meta": {
          "profile": [
            "http://hl7.org/fhir/us/core/StructureDefinition/us-core-observationresults"
          ],
          "source": [
            "ecr"
          ]
        },
        "identifier": [
          {
            "system": "urn:oid:1.2.840.114350.1.13.478.3.7.2.798268",
            "value": "2061354"
          }
        ],
        "category": [
          {
            "coding": [
              {
                "system": "http://terminology.hl7.org/CodeSystem/observation-category",
                "code": "laboratory"
              }
            ]
          }
        ],
        "status": "final",
        "code": {
          "coding": [
            {
              "code": "56850-1",
              "display": "Lab Interpretation",
              "system": "http://loinc.org"
            }
          ]
        },
        "effectiveDateTime": "2022-04-11T20:16:30Z",
        "valueString": "Abnormal",
        "extension": [
          {
            "url": "http://hl7.org/fhir/R4/specimen.html",
            "extension": [
              {
                "url": "specimen source",
                "valueString": "Blood"
              },
              {
                "url": "specimen collection time",
                "valueDateTime": "2022-04-11T15:23:00Z"
              },
              {
                "url": "specimen receive time",
                "valueDateTime": "2022-04-11T15:24:00Z"
              }
            ]
          }
        ],
        "subject": {
          "reference": "Patient/1306b864-69fe-41b8-93e2-0735de8637d6"
        }
      },
      "request": {
        "method": "PUT",
        "url": "Observation/cb9681f4-ec4b-b7f9-974f-d3872cafa9c4"
      }
    },
    {
      "fullUrl": "urn:uuid:a425eea5-7807-f1c2-30c3-4672051b9521",
      "resource": {
        "resourceType": "Observation",
        "id": "a425eea5-7807-f1c2-30c3-4672051b9521",
        "meta": {
          "profile": [
            "http://hl7.org/fhir/us/core/StructureDefinition/us-core-observationresults"
          ],
          "source": [
            "ecr"
          ]
        },
        "identifier": [
          {
            "system": "urn:oid:1.2.840.114350.1.13.478.3.7.1.1040.1",
            "value": "Z31828^^72166-2"
          }
        ],
        "category": [
          {
            "coding": [
              {
                "system": "http://terminology.hl7.org/CodeSystem/observation-category",
                "code": "social-history"
              }
            ]
          }
        ],
        "status": "final",
        "code": {
          "coding": [
            {
              "code": "72166-2",
              "display": "Tobacco smoking status NHIS",
              "system": "http://loinc.org"
            }
          ]
        },
        "valueCodeableConcept": {
          "coding": [
            {
              "code": "266927001",
              "display": "Tobacco smoking consumption unknown",
              "system": "http://snomed.info/sct"
            }
          ]
        },
        "subject": {
          "reference": "Patient/1306b864-69fe-41b8-93e2-0735de8637d6"
        }
      },
      "request": {
        "method": "PUT",
        "url": "Observation/a425eea5-7807-f1c2-30c3-4672051b9521"
      }
    },
    {
      "fullUrl": "urn:uuid:",
      "resource": {
        "resourceType": "Observation",
        "meta": {
          "profile": [
            "http://hl7.org/fhir/us/core/StructureDefinition/us-core-observationresults"
          ],
          "source": [
            "ecr"
          ]
        }
      },
      "request": {
        "method": "PUT",
        "url": "Observation/"
      }
    },
    {
      "fullUrl": "urn:uuid:f5e25af7-945a-cf66-d2d0-8942935165a2",
      "resource": {
        "resourceType": "Immunization",
        "id": "f5e25af7-945a-cf66-d2d0-8942935165a2",
        "identifier": [
          {
            "system": "urn:oid:1.2.840.114350.1.13.478.3.7.2.768076",
            "value": "86940"
          }
        ],
        "occurrenceDateTime": "2021-01-22",
        "note": {
          "text": "SARS-COV-2 (COVID-19) RED CAP +BLUE LABEL VACCINE, MODERNA 12+YO"
        },
        "vaccineCode": {
          "coding": [
            {
              "code": "80777-273-10",
              "system": "urn:oid:2.16.840.1.113883.6.69"
            }
          ]
        },
        "lotNumber": "LLSFJK",
        "manufacturer": {
          "reference": "Organization/57fcc148-b440-3a80-749b-780325e9680d"
        },
        "status": "completed",
        "primarySource": true,
        "patient": {
          "reference": "Patient/1306b864-69fe-41b8-93e2-0735de8637d6"
        },
        "meta": {
          "source": [
            "ecr"
          ]
        }
      },
      "request": {
        "method": "PUT",
        "url": "Immunization/f5e25af7-945a-cf66-d2d0-8942935165a2"
      }
    },
    {
      "fullUrl": "urn:uuid:57fcc148-b440-3a80-749b-780325e9680d",
      "resource": {
        "resourceType": "Organization",
        "id": "57fcc148-b440-3a80-749b-780325e9680d",
        "name": "Moderna US, Inc.",
        "meta": {
          "source": [
            "ecr"
          ]
        }
      },
      "request": {
        "method": "PUT",
        "url": "Organization/57fcc148-b440-3a80-749b-780325e9680d"
      }
    },
    {
      "fullUrl": "urn:uuid:875c24ee-6be0-066b-ca5f-e73b2d914f5b",
      "resource": {
        "resourceType": "Immunization",
        "id": "875c24ee-6be0-066b-ca5f-e73b2d914f5b",
        "identifier": [
          {
            "system": "urn:oid:1.2.840.114350.1.13.478.3.7.2.768076",
            "value": "90497"
          }
        ],
        "occurrenceDateTime": "2020-09-08",
        "note": {
          "text": "Hep B, adult vaccine (Engerix/Recombivax)"
        },
        "status": "completed",
        "primarySource": true,
        "meta": {
          "source": [
            "ecr"
          ]
        }
      },
      "request": {
        "method": "PUT",
        "url": "Immunization/875c24ee-6be0-066b-ca5f-e73b2d914f5b"
      }
    },
    {
      "fullUrl": "urn:uuid:3c8af1dd-2983-5d97-d5f1-f6dd57e9eba1",
      "resource": {
        "resourceType": "Immunization",
        "id": "3c8af1dd-2983-5d97-d5f1-f6dd57e9eba1",
        "identifier": [
          {
            "system": "urn:oid:1.2.840.114350.1.13.478.3.7.2.768076",
            "value": "90499"
          }
        ],
        "occurrenceDateTime": "2021-06-15",
        "note": {
          "text": "DTaP, 5 pertussis antigens vaccine (DAPTACEL)"
        },
        "status": "completed",
        "primarySource": true,
        "meta": {
          "source": [
            "ecr"
          ]
        }
      },
      "request": {
        "method": "PUT",
        "url": "Immunization/3c8af1dd-2983-5d97-d5f1-f6dd57e9eba1"
      }
    }
  ]
}
