{
  "resourceType": "Bundle",
  "type": "batch",
  "entry": [
    {
      "fullUrl": "urn:uuid:6100896d-b520-497c-b2fe-1c111c679274",
      "resource": {
        "resourceType": "Composition",
        "id": "6100896d-b520-497c-b2fe-1c111c679274",
        "meta": {
          "profile": [
            "http://hl7.org/fhir/us/ecr/StructureDefinition/eicr-composition"
          ],
          "source": [
            "ecr"
          ]
        },
        "identifier": [
          {
            "use": "official",
            "type": {
              "coding": [
                {
                  "code": "55751-2",
                  "display": "Initial Public Health Case Report",
                  "system": "http://loinc.org"
                }
              ]
            },
            "value": "38381210|64871322"
          }
        ],
        "extension": [
          {
            "url": "http://hl7.org/fhir/StructureDefinition/composition-clinicaldocument-versionNumber",
            "valueString": "1"
          }
        ],
        "status": "final",
        "type": {
          "coding": [
            {
              "code": "55751-2",
              "display": "Initial Public Health Case Report",
              "system": "http://loinc.org"
            }
          ]
        },
        "date": "2022-04-17T04:17:21Z",
        "title": "Initial Public Health Case Report",
        "confidentiality": "N",
        "section": [
          {
            "id": "8387d52d-4149-8faf-9cf0-55a1d72748d5",
            "title": "PROBLEMS - DIAGNOSES",
            "text": {
              "status": "generated",
              "div": "<table><thead><tr><th>Problem or Diagnosis</th><th>Problem Status</th></tr></thead><tbody><tr><td>TTP (thrombotic thrombocytopenic purpura)</td><td>Active</td></tr></tbody></table>"
            },
            "code": {
              "coding": [
                {
                  "code": "11450-4",
                  "display": "PROBLEM LIST",
                  "system": "http://loinc.org"
                }
              ]
            },
            "mode": "snapshot",
            "entry": [
              {
                "display": "Problem - Thrombotic thrombocytopenic purpura (disorder)",
                "reference": "Condition/3907477b-3eba-59c4-6622-d3c3a81a39f4"
              }
            ]
          },
          {
            "id": "58ebd6f7-9c63-dac4-1f3f-c4a55907bb39",
            "title": "ENCOUNTERS",
            "text": {
              "status": "generated",
              "div": "<table><thead><tr><th>Encounter Reason</th><th>Date of Encounter</th></tr></thead><tbody><tr><td>observation encounter</td><td>20220415161500+0000</td></tr></tbody></table>"
            },
            "code": {
              "coding": [
                {
                  "code": "46240-8",
                  "display": "History of Encounters",
                  "system": "http://loinc.org"
                }
              ]
            },
            "mode": "snapshot"
          },
          {
            "id": "dc32a83b-bbcc-85fe-5240-91c405175be5",
            "title": "RESULTS",
            "text": {
              "status": "generated",
              "div": "<table><thead><tr><th>Lab Test Name</th><th>Lab Test Result Value</th><th>Lab Test Result Date</th></tr></thead><tbody><tr><td>Troponin TNIH</td><td>8.2|http://unitsofmeasure.org|ng/L</td><td></td></tr><tr><td>Troponin TNIH</td><td>8.1|http://unitsofmeasure.org|ng/L</td><td></td></tr><tr><td>Troponin TNIH</td><td>9.5|http://unitsofmeasure.org|ng/L</td><td></td></tr><tr><td>NT-ProBNP</td><td>84|http://unitsofmeasure.org|pg/mL</td><td></td></tr><tr><td>Estimated Creatinine Clearance</td><td>52.76|http://unitsofmeasure.org|mL/min</td><td></td></tr><tr><td>Symptomatic as defined by CDC?</td><td>Yes</td><td></td></tr><tr><td>In ICU?</td><td>No</td><td></td></tr><tr><td>Group care resident?</td><td>No</td><td></td></tr><tr><td>Employed in healthcare?</td><td>No</td><td></td></tr><tr><td>SARS-CoV-2 Interp:</td><td>Unknown</td><td></td></tr><tr><td>SARS-CoV-2 PCR</td><td>Negative</td><td></td></tr><tr><td>eGFR Pediatric</td><td>Not Reported</td><td></td></tr><tr><td>Flu B PCR</td><td>Not Detected</td><td></td></tr><tr><td>Flu A PCR</td><td>Not Detected</td><td></td></tr><tr><td>Calc Osmo</td><td>270|http://unitsofmeasure.org|mOsmol/kg</td><td></td></tr><tr><td>A/G Ratio</td><td>Unknown</td><td></td></tr><tr><td>eGFR Non-African American</td><td>70|http://unitsofmeasure.org|mL/min/1.73m2</td><td></td></tr><tr><td>eGFR African American</td><td>81|http://unitsofmeasure.org|mL/min/1.73m2</td><td></td></tr><tr><td>Sodium</td><td>135|http://unitsofmeasure.org|mmol/L</td><td></td></tr><tr><td>Potassium</td><td>4.0|http://unitsofmeasure.org|mmol/L</td><td></td></tr><tr><td>Baso # Auto</td><td>0.02|http://unitsofmeasure.org|x10e3/mcL</td><td></td></tr><tr><td>Albumin. Level</td><td>3.6|http://unitsofmeasure.org|gm/dL</td><td></td></tr><tr><td>Mono # Auto</td><td>0.60|http://unitsofmeasure.org|x10e3/mcL</td><td></td></tr><tr><td>Neut # Auto</td><td>4.73|http://unitsofmeasure.org|x10e3/mcL</td><td></td></tr><tr><td>Baso % Auto</td><td>0.3|http://unitsofmeasure.org|%</td><td></td></tr><tr><td>Eos % Auto</td><td>0.7|http://unitsofmeasure.org|%</td><td></td></tr><tr><td>Lymph % Auto</td><td>21.3|http://unitsofmeasure.org|%</td><td></td></tr><tr><td>Neut % Auto</td><td>68.9|http://unitsofmeasure.org|%</td><td></td></tr><tr><td>Calcium</td><td>9.1|http://unitsofmeasure.org|mg/dL</td><td></td></tr><tr><td>RDW-SD</td><td>49.7|http://unitsofmeasure.org|Femtoliters</td><td></td></tr><tr><td>Immature Grans # Auto</td><td>0.01|http://unitsofmeasure.org|x10e3/mcL</td><td></td></tr><tr><td>Lymph # Auto</td><td>1.46|http://unitsofmeasure.org|x10e3/mcL</td><td></td></tr><tr><td>Mono % Auto</td><td>8.7|http://unitsofmeasure.org|%</td><td></td></tr><tr><td>RDW-CV</td><td>14.9|http://unitsofmeasure.org|%</td><td></td></tr><tr><td>Immature Grans %</td><td>0.1|http://unitsofmeasure.org|%</td><td></td></tr><tr><td>Eos # Auto</td><td>0.05|http://unitsofmeasure.org|x10e3/mcL</td><td></td></tr><tr><td>Chloride</td><td>101|http://unitsofmeasure.org|mmol/L</td><td></td></tr><tr><td>BUN</td><td>9|http://unitsofmeasure.org|mg/dL</td><td></td></tr><tr><td>Plt</td><td>195|http://unitsofmeasure.org|x10e3/mcL</td><td></td></tr><tr><td>WBC</td><td>6.87|http://unitsofmeasure.org|x10e3/mcL</td><td></td></tr><tr><td>TP</td><td>8.9|http://unitsofmeasure.org|gm/dL</td><td></td></tr><tr><td>RBC</td><td>4.92|http://unitsofmeasure.org|x10e6/mcL</td><td></td></tr><tr><td>MPV</td><td>11.6|http://unitsofmeasure.org|Femtoliters</td><td></td></tr><tr><td>MCV</td><td>90.7|http://unitsofmeasure.org|Femtoliters</td><td></td></tr><tr><td>MCHC</td><td>33.0|http://unitsofmeasure.org|gm/dL</td><td></td></tr><tr><td>MCH</td><td>29.9|http://unitsofmeasure.org|pg</td><td></td></tr><tr><td>Hgb</td><td>14.7|http://unitsofmeasure.org|gm/dL</td><td></td></tr><tr><td>Hct</td><td>44.6|http://unitsofmeasure.org|%</td><td></td></tr><tr><td>Glucose Level</td><td>115|http://unitsofmeasure.org|mg/dL</td><td></td></tr><tr><td>D Dimer</td><td>0.34|http://unitsofmeasure.org|mcg/mL FEU</td><td></td></tr><tr><td>CO2</td><td>28|http://unitsofmeasure.org|mmol/L</td><td></td></tr><tr><td>T Bili</td><td>0.8|http://unitsofmeasure.org|mg/dL</td><td></td></tr><tr><td>AST</td><td>25|http://unitsofmeasure.org|units/L</td><td></td></tr><tr><td>ALT</td><td>19|http://unitsofmeasure.org|units/L</td><td></td></tr><tr><td>Alk Phos</td><td>67|http://unitsofmeasure.org|units/L</td><td></td></tr><tr><td>BUN/Creat Ratio</td><td>Unknown</td><td></td></tr><tr><td>Anion Gap</td><td>6|http://unitsofmeasure.org|mmol/L</td><td></td></tr><tr><td>Creatinine</td><td>0.856|http://unitsofmeasure.org|mg/dL</td><td></td></tr></tbody></table>"
            },
            "code": {
              "coding": [
                {
                  "code": "30954-2",
                  "display": "RESULTS",
                  "system": "http://loinc.org"
                }
              ]
            },
            "mode": "snapshot",
            "entry": [
              {
                "reference": "Observation/94f5feb0-b01a-e1ee-e418-052f9efb84c7"
              },
              {
                "reference": "Observation/78facf8f-f08a-26f9-5527-4bafe534a4f9"
              },
              {
                "reference": "Observation/e5294ace-dc90-71ab-1183-0ecce3cdbb57"
              },
              {
                "reference": "Observation/a5487fa0-7b9c-4b9e-d5fd-78aaf89a3bd3"
              },
              {
                "reference": "Observation/a3c3b47a-bf65-775e-7f5c-2c215cdd613c"
              },
              {
                "reference": "Observation/30bf6f23-8624-eaa9-fb82-678901f75c5e"
              },
              {
                "reference": "Observation/c3029932-4c25-a515-b4c6-e35e5764b464"
              },
              {
                "reference": "Observation/f50c588e-778b-2fb8-95ca-b2895c85dcdd"
              },
              {
                "reference": "Observation/1cec98b6-3381-dd8d-360c-21d5ed818f62"
              },
              {
                "reference": "Observation/7f07e455-5574-a648-1543-cba70270a4e4"
              },
              {
                "reference": "Observation/562aaa4c-b024-2655-efe5-1155eab8aabc"
              },
              {
                "reference": "Observation/fc5517ad-dbab-6e81-d88a-c7589f32a820"
              },
              {
                "reference": "Observation/986e51be-bcb9-0e85-26de-ee93f55b9652"
              },
              {
                "reference": "Observation/6a6a5554-9b68-a91a-76d9-f32c051dfa62"
              },
              {
                "reference": "Observation/30b4c04b-9788-b94d-bd4b-eb849b2d9102"
              },
              {
                "reference": "Observation/9082dd79-88a9-1f15-c4fd-93d955d16ecd"
              },
              {
                "reference": "Observation/09b3ec87-393a-9b52-1609-db67d66cf21c"
              },
              {
                "reference": "Observation/8170fe97-63af-51c4-3454-20966f4a2c7b"
              },
              {
                "reference": "Observation/036a8d7b-df19-cbfa-37a7-21e9583ce4c1"
              },
              {
                "reference": "Observation/e32e94e6-7415-be5d-3292-0966edd22333"
              },
              {
                "reference": "Observation/b1127a40-3939-691b-d336-236f6546d029"
              },
              {
                "reference": "Observation/ec7b419f-634e-4271-dc91-ba2effb97b76"
              },
              {
                "reference": "Observation/f03f3593-6156-f89f-14bd-86a34685d4bc"
              },
              {
                "reference": "Observation/2dd4f4d5-0f5e-ebf1-3604-fec9d6bffbd0"
              },
              {
                "reference": "Observation/f2523ccf-f211-d164-ff88-33d8c6468983"
              },
              {
                "reference": "Observation/1f283bd6-2d5c-1710-7d06-ec698c99493a"
              },
              {
                "reference": "Observation/a9249110-9884-0b13-e66c-1c010f5e65fa"
              },
              {
                "reference": "Observation/131665fd-57c3-71bd-684e-923b6f757c06"
              },
              {
                "reference": "Observation/396356a0-a50c-b781-9f28-f298804e4d92"
              },
              {
                "reference": "Observation/56129862-0f40-6d26-9b6a-b4ad52d28a19"
              },
              {
                "reference": "Observation/98f99e5f-cc42-1a10-9513-fa6de9461791"
              },
              {
                "reference": "Observation/e9649c89-9768-2ccc-02a1-21c5ba61cf90"
              },
              {
                "reference": "Observation/7a12de1d-a25c-57ec-2f76-9cc36e6cc6ab"
              },
              {
                "reference": "Observation/12e99bf8-7870-70c1-aeb2-3b6776d820c9"
              },
              {
                "reference": "Observation/2ad0896c-fe55-1df4-7698-862223348f49"
              },
              {
                "reference": "Observation/68dd9edb-14d7-3cdd-e3df-a1084fd65e71"
              },
              {
                "reference": "Observation/24c9897d-8045-2680-9a81-2bed3a0bf8c1"
              },
              {
                "reference": "Observation/1f783aae-998b-170b-0fe3-85c1fd49d571"
              },
              {
                "reference": "Observation/dba50ebc-cd5f-f7d8-63a2-1f3dfadc9faa"
              },
              {
                "reference": "Observation/ee31ebe3-89af-f9c1-5c9d-77a3d1dae142"
              },
              {
                "reference": "Observation/123b523e-91bd-4ac5-ea2b-fa30625adba8"
              },
              {
                "reference": "Observation/8ac33820-131e-b29f-eea9-4dca7aca7bb1"
              },
              {
                "reference": "Observation/3e6d19ba-99ec-b040-a03a-ea96d6abcac1"
              },
              {
                "reference": "Observation/eeb82005-0020-b4c9-48db-8b2de294e54e"
              },
              {
                "reference": "Observation/a5a632d6-4369-0a9a-8907-91c8b997e869"
              },
              {
                "reference": "Observation/2815bda1-1dc3-e1cc-1dd8-ebb9ee9b1717"
              },
              {
                "reference": "Observation/d64acb60-f1d0-3fbd-2225-71c1eea6a741"
              },
              {
                "reference": "Observation/db9c6727-aa8d-bbfa-e559-e33ba98ede46"
              },
              {
                "reference": "Observation/5e514b8a-4779-67dd-4d03-b94d7d711f9b"
              },
              {
                "reference": "Observation/e3325ed8-7e9b-6119-a3bd-0e210444b3ce"
              },
              {
                "reference": "Observation/1f829d47-da43-84cd-31cf-86d37c899e95"
              },
              {
                "reference": "Observation/2bfdc249-8248-7487-6dc7-d712929fa0bc"
              },
              {
                "reference": "Observation/d01b3806-be84-5331-b6e8-30b4d70d584e"
              },
              {
                "reference": "Observation/4522f2ed-ad93-341b-b5ff-ada74da2ab25"
              },
              {
                "reference": "Observation/8a3e4fe5-a269-3cb1-49ff-4ef054b8fa30"
              },
              {
                "reference": "Observation/54f875a6-2f8a-b093-d4c2-afa62467df93"
              },
              {
                "reference": "Observation/0d5219a6-ab87-16b9-ba0f-79240342f308"
              },
              {
                "reference": "Observation/d62fc0a5-46a4-7dbe-dadf-4adba4d008b8"
              }
            ]
          },
          {
            "id": "c000a97e-4421-7caa-ffa7-481aadaa031b",
            "title": "Medications Administered",
            "text": {
              "status": "generated",
              "div": "<table><thead><tr><th>Medication Name</th><th>Medication Start Date</th></tr></thead><tbody><tr><td>albuterol (Ventolin HFA 90 mcg/inh inhalation aerosol)</td><td>20220416050100+0000</td></tr><tr><td>doxycycline (doxycycline hyclate 100 mg oral tablet)</td><td>20220416050100+0000</td></tr><tr><td>predniSONE (predniSONE 50 mg oral tablet)</td><td>20220416050100+0000</td></tr><tr><td>Sodium Chloride 0.9% intravenous solution (NS Bolus (ADULT))</td><td>20220415164100+0000</td></tr><tr><td>dexamethasone</td><td>20220415164300+0000</td></tr><tr><td>ipratropium-albuterol (DuoNeb)</td><td>20220415164300+0000</td></tr></tbody></table>"
            },
            "code": {
              "coding": [
                {
                  "code": "29549-3",
                  "display": "Medications Administered",
                  "system": "http://loinc.org"
                }
              ]
            },
            "mode": "snapshot"
          },
          {
            "id": "dd08df91-869b-46df-dd36-c5c0f2ad2eae",
            "title": "IMMUNIZATIONS",
            "text": {
              "status": "generated",
              "div": "No ImmunizationInformation"
            },
            "code": {
              "coding": [
                {
                  "code": "11369-6",
                  "display": "History of immunizations",
                  "system": "http://loinc.org"
                }
              ]
            },
            "mode": "snapshot"
          },
          {
            "id": "1ee0e176-222f-864a-5b05-9a38d5189d31",
            "title": "SOCIAL HISTORY",
            "text": {
              "status": "generated",
              "div": "<table><thead><tr><th>Social History Observation</th><th>Social History Observation Result</th></tr></thead><tbody><tr><td>Birth Sex</td><td>F</td></tr><tr><td>Travel History</td><td>COVID- 19 Testing Reason-Screening</td></tr><tr><td>Travel History</td><td>COVID- 19 Testing Reason-Screening</td></tr><tr><td>Travel History</td><td>COVID-19 Previously tested-No (qualifier value)</td></tr><tr><td>Travel History</td><td>Exposure to severe acute respiratory syndrome coronavirus 2 (event)-No (qualifier value)</td></tr><tr><td>Travel History</td><td>MERS-CoV Travel History-No (qualifier value)</td></tr><tr><td>Travel History</td><td>TB Risk Score-</td></tr><tr><td>Travel History</td><td>Symptoms of TB-No symptoms of TB</td></tr><tr><td>Travel History</td><td>History of tuberculosis (situation)-No known history of exposure to TB</td></tr><tr><td>Travel History</td><td>C.diff Screening-No (qualifier value)</td></tr><tr><td>Travel History</td><td>MERS-CoV Symptoms-</td></tr><tr><td>Travel History</td><td>MRSA Screen Hx MRSA-No (qualifier value)</td></tr><tr><td>Travel History</td><td>Recent Exposure to Communicable Disease-No (qualifier value)</td></tr></tbody></table>"
            },
            "code": {
              "coding": [
                {
                  "code": "29762-2",
                  "display": "Social History",
                  "system": "http://loinc.org"
                }
              ]
            },
            "mode": "snapshot",
            "entry": [
              {
                "reference": "Observation/9389af18-d1a2-58ab-ee16-0681acd78c6f"
              },
              {
                "reference": "Observation/51746276-2451-9932-9e58-4f21971c62ac"
              },
              {
                "reference": "Observation/e3794f31-0b96-7d3f-69d5-7b944494e540"
              },
              {
                "reference": "Observation/f21fadab-af58-b443-50c0-2201075d0c25"
              },
              {
                "reference": "Observation/88ab5385-5cb5-0308-a58e-bc67b2f3b725"
              },
              {
                "reference": "Observation/dbe310c6-9580-0fe6-11c8-4b8caa33a9fb"
              },
              {
                "reference": "Observation/f4ed88e3-7742-2dea-1a58-8505caead382"
              },
              {
                "reference": "Observation/68f1da74-94b9-7976-76f3-b5354cc0f35f"
              },
              {
                "reference": "Observation/994278a6-ca17-8619-c789-19b8b6bf6f9c"
              },
              {
                "reference": "Observation/1e6de63d-ea70-84d6-52d2-46429d031b57"
              },
              {
                "reference": "Observation/3ca15288-a6ed-8ad3-77c9-eee0ba9275be"
              },
              {
                "reference": "Observation/eedc882c-0f16-276c-3bd8-b677a1a6c600"
              }
            ]
          },
          {
            "id": "7dbd51e8-1c15-8cfa-cbce-f6f4b9a1ed5d",
            "title": "Plan of Treatment",
            "text": {
              "status": "generated",
              "div": "No Plan Of Treatment Information"
            },
            "code": {
              "coding": [
                {
                  "code": "18776-5",
                  "display": "Treatment Plan",
                  "system": "http://loinc.org"
                }
              ]
            },
            "mode": "snapshot"
          },
          {
            "id": "d9d29cc3-a276-3cb1-dfbf-e1c4ce391ff6",
            "title": "History of Present Illness",
            "text": {
              "status": "generated",
              "div": "<table><thead><tr><th>Narrative Text</th></tr></thead><tbody><tr><td>Wheezing</td></tr><tr><td>Acute URI</td></tr><tr><td>Cough</td></tr><tr><td>Tachycardia</td></tr></tbody></table>"
            },
            "code": {
              "coding": [
                {
                  "code": "10164-2",
                  "display": "History of Present Illness",
                  "system": "http://loinc.org"
                }
              ]
            },
            "mode": "snapshot"
          },
          {
            "id": "65225627-ffb0-e051-e796-fbbd26035fbc",
            "title": "Reason For Visit",
            "text": {
              "status": "generated",
              "div": "<table><thead><tr><th>text</th></tr></thead><tbody><tr><td>ACUTE URI</td></tr></tbody></table>"
            },
            "code": {
              "coding": [
                {
                  "code": "29299-5",
                  "display": "Reason For Visit",
                  "system": "http://loinc.org"
                }
              ]
            },
            "mode": "snapshot"
          },
          {
            "id": "fe5ea6af-6ec5-edfd-fe9b-c6b07748e2dd",
            "title": "Reportability Response Information Section",
            "text": {
              "status": "generated",
              "div": "<div xmlns=\"http://www.w3.org/1999/xhtml\">Reportability Response Information Section</div>"
            },
            "extension": [
              {
                "url": "http://hl7.org/fhir/us/ecr/StructureDefinition/rr-composition",
                "valueIdentifier": {
                  "use": "official",
                  "type": {
                    "coding": [
                      {
                        "code": "88085-6",
                        "display": "Reportability response report Document Public health",
                        "system": "http://loinc.org"
                      }
                    ]
                  },
                  "value": "85923796-cef7-4122-ac1a-c181799e3604"
                }
              },
              {
                "url": "http://hl7.org/fhir/us/ecr/StructureDefinition/rr-eicr-processing-status-extension",
                "valueCodeableConcept": {
                  "coding": [
                    {
                      "code": "RRVS19",
                      "display": "eICR processed",
                      "system": "urn:oid:2.16.840.1.114222.4.5.274"
                    }
                  ]
                }
              }
            ],
            "code": {
              "coding": [
                {
                  "code": "88085-6",
                  "display": "Reportability response report Document Public health",
                  "system": "http://loinc.org"
                }
              ]
            },
            "entry": [
              {
                "display": "Relevant Reportable Condition Observation - Infection caused by Shiga toxin producing Escherichia coli (disorder)",
                "reference": "Observation/2fa797d2-eae1-4932-a9d3-f2c4f3992fe1"
              },
              {
                "display": "Relevant Reportable Condition Observation - Hemolytic uremic syndrome (disorder)",
                "reference": "Observation/30602f55-7718-4880-8045-f3dc6341ff58"
              },
              {
                "display": "Relevant Reportable Condition Observation - Hemolytic uremic syndrome (disorder)",
                "reference": "Observation/6f6b5bd3-4eb1-4a27-89d1-a2098c124252"
              }
            ]
          }
        ],
        "subject": {
          "reference": "Patient/f9d2a645-e95c-40e4-bd00-f46f208f4f16"
        },
        "encounter": {
          "reference": "Encounter/60ed4165-219a-123f-5845-33a2aec9895a"
        },
        "custodian": {
          "reference": "Organization/430c88de-09b3-f835-b008-e93f59ce7f15"
        },
        "author": [
          {
            "reference": "Practitioner/eb4f8e78-f15e-116f-af46-435e15202c5d"
          }
        ]
      },
      "request": {
        "method": "PUT",
        "url": "Composition/6100896d-b520-497c-b2fe-1c111c679274"
      }
    },
    {
      "fullUrl": "urn:uuid:60ed4165-219a-123f-5845-33a2aec9895a",
      "resource": {
        "resourceType": "Encounter",
        "id": "60ed4165-219a-123f-5845-33a2aec9895a",
        "status": "unknown",
        "class": {
          "code": "OBSENC",
          "display": "observation encounter",
          "system": "urn:oid:2.16.840.1.113883.5.4"
        },
        "identifier": [
          {
            "system": "urn:oid:2.16.840.1.113883",
            "value": "Encounter/64871322/_history/32"
          },
          {
            "system": "urn:oid:2.16.840.1.113883.17.8797.200",
            "value": "5004465497"
          }
        ],
        "period": {
          "start": "2022-04-15T16:15:00Z",
          "end": "2022-04-16T02:21:00Z"
        },
        "subject": {
          "reference": "Patient/f9d2a645-e95c-40e4-bd00-f46f208f4f16"
        },
        "location": [
          {
            "id": "2.16.840.1.113883.4.6",
            "location": {
              "reference": "Location/9d62f0ba-2587-a556-b341-fb0eb65baecd",
              "display": "HHN-Henderson Hospital"
            },
            "extension": [
              {
                "url": "http://build.fhir.org/ig/HL7/case-reporting/StructureDefinition-us-ph-location-definitions.html#Location.type",
                "valueCodeableConcept": {
                  "coding": [
                    {
                      "code": "team",
                      "display": "Organizational team",
                      "system": "urn:oid:2.16.840.1.113883.4.642.3.414"
                    }
                  ]
                }
              }
            ]
          }
        ],
        "participant": [
          {
            "type": [
              {
                "coding": [
                  {
                    "system": "http://terminology.hl7.org/CodeSystem/v3-ParticipationType",
                    "code": "ATND"
                  }
                ]
              }
            ],
            "individual": {
              "reference": "Practitioner/eb4f8e78-f15e-116f-af46-435e15202c5d"
            }
          }
        ],
        "meta": {
          "source": [
            "ecr"
          ]
        }
      },
      "request": {
        "method": "PUT",
        "url": "Encounter/60ed4165-219a-123f-5845-33a2aec9895a"
      }
    },
    {
      "fullUrl": "urn:uuid:9d62f0ba-2587-a556-b341-fb0eb65baecd",
      "resource": {
        "resourceType": "Location",
        "id": "9d62f0ba-2587-a556-b341-fb0eb65baecd",
        "identifier": [
          {
            "value": "2.16.840.1.113883.4.6"
          }
        ],
        "name": "HHN-Henderson Hospital",
        "address": {
          "line": [
            "1050 W. Galleria Drive"
          ],
          "city": "Henderson",
          "state": "NV",
          "country": "USA",
          "postalCode": "89011"
        },
        "telecom": [
          {
            "system": "phone",
            "value": "(702)963-7000",
            "use": "work"
          },
          {
            "system": "phone",
            "value": "(702)963-7000",
            "use": "work"
          }
        ],
        "type": [
          {
            "coding": [
              {
                "code": "team",
                "display": "Organizational team",
                "system": "urn:oid:2.16.840.1.113883.4.642.3.414"
              }
            ]
          }
        ],
        "meta": {
          "source": [
            "ecr"
          ]
        }
      },
      "request": {
        "method": "PUT",
        "url": "Location/9d62f0ba-2587-a556-b341-fb0eb65baecd"
      }
    },
    {
      "fullUrl": "urn:uuid:eb4f8e78-f15e-116f-af46-435e15202c5d",
      "resource": {
        "resourceType": "Practitioner",
        "id": "eb4f8e78-f15e-116f-af46-435e15202c5d",
        "meta": {
          "profile": [
            "http://hl7.org/fhir/us/core/StructureDefinition/us-core-practitioner"
          ],
          "source": [
            "ecr"
          ]
        },
        "extension": [
          {
            "url": "http://hl7.org/fhir/StructureDefinition/_datatype",
            "valueString": "Responsible Party"
          }
        ],
        "identifier": [
          {
            "system": "http://hl7.org/fhir/sid/us-npi",
            "value": "1326599333"
          }
        ],
        "name": [
          {
            "use": "usual",
            "text": "HHN-Henderson Hospital"
          },
          {
            "family": "Nielsen",
            "given": [
              "Victoria",
              "K"
            ]
          }
        ],
        "address": [
          {
            "line": [
              "1050 W. Galleria Drive"
            ],
            "city": "Henderson",
            "state": "NV",
            "country": "USA",
            "postalCode": "89011"
          },
          {
            "line": [
              "620 Shadow Lane"
            ],
            "city": "Las Vegas",
            "state": "NV",
            "country": "US",
            "postalCode": "89106"
          }
        ],
        "telecom": [
          {
            "system": "phone",
            "value": "(702)963-7000",
            "use": "work"
          },
          {
            "system": "phone",
            "value": "(702)963-7000",
            "use": "work"
          },
          {
            "system": "phone",
            "value": "((70)2)2-59-1"
          }
        ]
      },
      "request": {
        "method": "PUT",
        "url": "Practitioner/eb4f8e78-f15e-116f-af46-435e15202c5d"
      }
    },
    {
      "fullUrl": "urn:uuid:0e0c4ed5-f251-7818-c530-5081ac13c13c",
      "resource": {
        "resourceType": "Organization",
        "id": "0e0c4ed5-f251-7818-c530-5081ac13c13c",
        "meta": {
          "profile": [
            "http://hl7.org/fhir/us/ecr/StructureDefinition/rr-routing-entity-organization"
          ],
          "source": [
            "ecr"
          ]
        },
        "active": true,
        "type": [
          {
            "coding": [
              {
                "system": "urn:oid:2.16.840.1.114222.4.5.232",
                "code": "RR7",
                "display": "Routing Entity"
              }
            ]
          }
        ],
        "name": "California Department of Public Health"
      },
      "request": {
        "method": "PUT",
        "url": "Organization/0e0c4ed5-f251-7818-c530-5081ac13c13c"
      }
    },
    {
      "fullUrl": "urn:uuid:2fa797d2-eae1-4932-a9d3-f2c4f3992fe1",
      "resource": {
        "resourceType": "Observation",
        "id": "2fa797d2-eae1-4932-a9d3-f2c4f3992fe1",
        "meta": {
          "profile": [
            "http://hl7.org/fhir/us/ecr/StructureDefinition/rr-reportability-information-observation"
          ],
          "source": [
            "ecr"
          ]
        },
        "identifier": [
          {
            "system": "urn:ietf:rfc:3986",
            "value": "urn:uuid:2fa797d2-eae1-4932-a9d3-f2c4f3992fe1"
          }
        ],
        "status": "final",
        "code": {
          "coding": [
            {
              "code": "64572001",
              "display": "Condition",
              "system": "http://snomed.info/sct"
            },
            {
              "code": "75323-6",
              "display": "Condition",
              "system": "http://loinc.org"
            }
          ]
        },
        "valueCodeableConcept": {
          "coding": [
            {
              "code": "328291000119103",
              "display": "Infection caused by Shiga toxin producing Escherichia coli (disorder)",
              "system": "http://snomed.info/sct"
            }
          ]
        },
        "extension": [
          {
            "url": "http://hl7.org/fhir/us/ecr/StructureDefinition/us-ph-determination-of-reportability-rule-extension",
            "valueString": "Thrombotic thrombocytopenic purpura (TTP) (as a diagnosis or active problem)"
          }
        ],
        "performer": [
          {
            "reference": "Organization/0e0c4ed5-f251-7818-c530-5081ac13c13c",
            "display": "California Department of Public Health"
          }
        ]
      },
      "request": {
        "method": "PUT",
        "url": "Observation/2fa797d2-eae1-4932-a9d3-f2c4f3992fe1"
      }
    },
    {
      "fullUrl": "urn:uuid:c56015b1-ec87-3ccf-4f38-5a16943cf505",
      "resource": {
        "resourceType": "Organization",
        "id": "c56015b1-ec87-3ccf-4f38-5a16943cf505",
        "meta": {
          "profile": [
            "http://hl7.org/fhir/us/ecr/StructureDefinition/rr-routing-entity-organization"
          ],
          "source": [
            "ecr"
          ]
        },
        "active": true,
        "type": [
          {
            "coding": [
              {
                "system": "urn:oid:2.16.840.1.114222.4.5.232",
                "code": "RR7",
                "display": "Routing Entity"
              }
            ]
          }
        ],
        "name": "Los Angeles County Department of Public Health"
      },
      "request": {
        "method": "PUT",
        "url": "Organization/c56015b1-ec87-3ccf-4f38-5a16943cf505"
      }
    },
    {
      "fullUrl": "urn:uuid:30602f55-7718-4880-8045-f3dc6341ff58",
      "resource": {
        "resourceType": "Observation",
        "id": "30602f55-7718-4880-8045-f3dc6341ff58",
        "meta": {
          "profile": [
            "http://hl7.org/fhir/us/ecr/StructureDefinition/rr-reportability-information-observation"
          ],
          "source": [
            "ecr"
          ]
        },
        "identifier": [
          {
            "system": "urn:ietf:rfc:3986",
            "value": "urn:uuid:30602f55-7718-4880-8045-f3dc6341ff58"
          }
        ],
        "status": "final",
        "code": {
          "coding": [
            {
              "code": "64572001",
              "display": "Condition",
              "system": "http://snomed.info/sct"
            },
            {
              "code": "75323-6",
              "display": "Condition",
              "system": "http://loinc.org"
            }
          ]
        },
        "valueCodeableConcept": {
          "coding": [
            {
              "code": "111407006",
              "display": "Hemolytic uremic syndrome (disorder)",
              "system": "http://snomed.info/sct"
            }
          ]
        },
        "extension": [
          {
            "url": "http://hl7.org/fhir/us/ecr/StructureDefinition/us-ph-determination-of-reportability-rule-extension",
            "valueString": "Thrombotic Thrombocytopenic Purpura (TTP) (as a diagnosis or active problem)"
          }
        ],
        "performer": [
          {
            "reference": "Organization/c56015b1-ec87-3ccf-4f38-5a16943cf505",
            "display": "Los Angeles County Department of Public Health"
          }
        ]
      },
      "request": {
        "method": "PUT",
        "url": "Observation/30602f55-7718-4880-8045-f3dc6341ff58"
      }
    },
    {
      "fullUrl": "urn:uuid:51c6d940-9b3f-5a47-3f39-28848156d9cd",
      "resource": {
        "resourceType": "Organization",
        "id": "51c6d940-9b3f-5a47-3f39-28848156d9cd",
        "meta": {
          "profile": [
            "http://hl7.org/fhir/us/ecr/StructureDefinition/rr-routing-entity-organization"
          ],
          "source": [
            "ecr"
          ]
        },
        "active": true,
        "type": [
          {
            "coding": [
              {
                "system": "urn:oid:2.16.840.1.114222.4.5.232",
                "code": "RR7",
                "display": "Routing Entity"
              }
            ]
          }
        ],
        "name": "Nevada State Health Division"
      },
      "request": {
        "method": "PUT",
        "url": "Organization/51c6d940-9b3f-5a47-3f39-28848156d9cd"
      }
    },
    {
      "fullUrl": "urn:uuid:6f6b5bd3-4eb1-4a27-89d1-a2098c124252",
      "resource": {
        "resourceType": "Observation",
        "id": "6f6b5bd3-4eb1-4a27-89d1-a2098c124252",
        "meta": {
          "profile": [
            "http://hl7.org/fhir/us/ecr/StructureDefinition/rr-reportability-information-observation"
          ],
          "source": [
            "ecr"
          ]
        },
        "identifier": [
          {
            "system": "urn:ietf:rfc:3986",
            "value": "urn:uuid:6f6b5bd3-4eb1-4a27-89d1-a2098c124252"
          }
        ],
        "status": "final",
        "code": {
          "coding": [
            {
              "code": "64572001",
              "display": "Condition",
              "system": "http://snomed.info/sct"
            },
            {
              "code": "75323-6",
              "display": "Condition",
              "system": "http://loinc.org"
            }
          ]
        },
        "valueCodeableConcept": {
          "coding": [
            {
              "code": "111407006",
              "display": "Hemolytic uremic syndrome (disorder)",
              "system": "http://snomed.info/sct"
            }
          ]
        },
        "extension": [
          {
            "url": "http://hl7.org/fhir/us/ecr/StructureDefinition/us-ph-determination-of-reportability-rule-extension",
            "valueString": "Thrombotic Thrombocytopenic Purpura (TTP) (as a diagnosis or active problem)"
          }
        ],
        "performer": [
          {
            "reference": "Organization/51c6d940-9b3f-5a47-3f39-28848156d9cd",
            "display": "Nevada State Health Division"
          }
        ]
      },
      "request": {
        "method": "PUT",
        "url": "Observation/6f6b5bd3-4eb1-4a27-89d1-a2098c124252"
      }
    },
    {
      "fullUrl": "urn:uuid:430c88de-09b3-f835-b008-e93f59ce7f15",
      "resource": {
        "resourceType": "Organization",
        "id": "430c88de-09b3-f835-b008-e93f59ce7f15",
        "identifier": [
          {
            "system": "http://hl7.org/fhir/sid/us-npi",
            "value": "1003281452"
          }
        ],
        "name": "HHN-Henderson Hospital",
        "address": [
          {
            "line": [
              "1050 W. Galleria Drive"
            ],
            "city": "Henderson",
            "state": "NV",
            "country": "USA",
            "postalCode": "89011"
          }
        ],
        "telecom": [
          {
            "system": "phone",
            "value": "(702)963-7000",
            "use": "work"
          }
        ],
        "meta": {
          "source": [
            "ecr"
          ]
        }
      },
      "request": {
        "method": "PUT",
        "url": "Organization/430c88de-09b3-f835-b008-e93f59ce7f15"
      }
    },
    {
      "fullUrl": "urn:uuid:f9d2a645-e95c-40e4-bd00-f46f208f4f16",
      "resource": {
        "resourceType": "Patient",
        "id": "f9d2a645-e95c-40e4-bd00-f46f208f4f16",
        "meta": {
          "profile": [
            "http://hl7.org/fhir/us/core/StructureDefinition/us-core-patient"
          ],
          "source": [
            "ecr"
          ]
        },
        "identifier": [
          {
            "system": "urn:oid:2.16.840.1.113883",
            "value": "Patient/38381210/_history/58"
          },
          {
            "system": "urn:oid:2.16.840.1.113883.17.8797.100",
            "value": "8225956"
          },
          {
            "system": "urn:oid:2.16.840.1.113883.3.2061.100",
            "value": "5801038"
          }
        ],
        "name": [
          {
            "family": "HUNTER",
            "given": [
              "VICTORIA"
            ]
          }
        ],
        "birthDate": "1954-11-15",
        "deceasedBoolean": false,
        "gender": "female",
        "extension": [
          {
            "url": "http://hl7.org/fhir/us/core/StructureDefinition/us-core-race",
            "extension": [
              {
                "url": "ombCategory",
                "valueCoding": {
                  "code": "2054-5",
                  "display": "Black or African American"
                }
              },
              {
                "url": "text",
                "valueString": "Black or African American"
              }
            ]
          },
          {
            "url": "http://hl7.org/fhir/us/core/StructureDefinition/us-core-ethnicity",
            "extension": [
              {
                "url": "ombCategory",
                "valueCoding": {
                  "code": "2186-5",
                  "display": "Not Hispanic or Latino"
                }
              },
              {
                "url": "text",
                "valueString": "Not Hispanic or Latino"
              }
            ]
          },
          {
            "url": "http://hl7.org/fhir/us/core/StructureDefinition/us-core-birthsex",
            "extension": [
              {
                "url": "value",
                "valueCodeableConcept": {
                  "coding": [
                    {
                      "code": "F",
                      "display": "Female",
                      "system": "urn:oid:2.16.840.1.113883.5.1"
                    }
                  ]
                }
              }
            ]
          }
        ],
        "address": [
          {
            "line": [
              "309 EAST HILLCREST AVE",
              "APT 232"
            ],
            "city": "INGLEWOOD",
            "state": "CA",
            "country": "US",
            "postalCode": "90301-2405"
          }
        ],
        "telecom": [
          {
            "system": "phone",
            "value": "(424)356-9018",
            "use": "home"
          },
          {
            "system": "email",
            "value": "VSEAS14@GMAIL.COM"
          }
        ],
        "communication": [
          {
            "language": {
              "coding": [
                {
                  "system": "urn:ietf:bcp:47",
                  "code": "en",
                  "display": "English"
                }
              ]
            }
          }
        ]
      },
      "request": {
        "method": "PUT",
        "url": "Patient/f9d2a645-e95c-40e4-bd00-f46f208f4f16"
      }
    },
    {
      "fullUrl": "urn:uuid:a36f1344-b355-8a67-1146-ad16f7e8649e",
      "resource": {
        "resourceType": "CareTeam",
        "id": "a36f1344-b355-8a67-1146-ad16f7e8649e",
        "subject": {
          "reference": "Patient/f9d2a645-e95c-40e4-bd00-f46f208f4f16"
        },
        "meta": {
          "source": [
            "ecr"
          ]
        }
      }
    },
    {
      "fullUrl": "urn:uuid:60683863-e16c-be81-ae5f-735cfb787db3",
      "resource": {
        "resourceType": "DiagnosticReport",
        "id": "60683863-e16c-be81-ae5f-735cfb787db3",
        "identifier": [
          {
            "system": "urn:ietf:rfc:3986",
            "value": "urn:uuid:b46c57df-7681-488d-8dbd-2e97687fa692"
          }
        ],
        "status": "final",
        "code": {
          "coding": [
            {
              "code": "10839-9",
              "display": "Troponin I.cardiac [Mass/volume] in Serum or Plasma",
              "system": "http://loinc.org"
            }
          ]
        },
        "subject": {
          "reference": "Patient/f9d2a645-e95c-40e4-bd00-f46f208f4f16"
        },
        "result": [
          {
            "reference": "Observation/94f5feb0-b01a-e1ee-e418-052f9efb84c7"
          }
        ],
        "meta": {
          "source": [
            "ecr"
          ]
        }
      },
      "request": {
        "method": "PUT",
        "url": "DiagnosticReport/60683863-e16c-be81-ae5f-735cfb787db3"
      }
    },
    {
      "fullUrl": "urn:uuid:94f5feb0-b01a-e1ee-e418-052f9efb84c7",
      "resource": {
        "resourceType": "Observation",
        "id": "94f5feb0-b01a-e1ee-e418-052f9efb84c7",
        "meta": {
          "profile": [
            "http://hl7.org/fhir/us/core/StructureDefinition/us-core-observationresults"
          ],
          "source": [
            "ecr"
          ]
        },
        "identifier": [
          {
            "system": "urn:oid:2.16.840.1.113883",
            "value": "https://fhir-ehr.cerner.com/r4/da0b5d99-573c-4f5e-aaf6-8d39fa93d033/Observation/M-19286757608/_history/1"
          }
        ],
        "category": [
          {
            "coding": [
              {
                "system": "http://terminology.hl7.org/CodeSystem/observation-category",
                "code": "laboratory"
              }
            ]
          }
        ],
        "status": "final",
        "code": {
          "coding": [
            {
              "code": "10839-9",
              "display": "Troponin I.cardiac [Mass/volume] in Serum or Plasma",
              "system": "http://loinc.org"
            }
          ]
        },
        "effectiveDateTime": "2022-04-15T22:26:00Z",
        "valueQuantity": {
          "value": 8.2,
          "unit": "ng/L"
        },
        "interpretation": [
          {
            "coding": [
              {
                "code": "N",
                "display": "Normal",
                "system": "http://terminology.hl7.org/CodeSystem/v3-ObservationInterpretation"
              }
            ]
          }
        ],
        "subject": {
          "reference": "Patient/f9d2a645-e95c-40e4-bd00-f46f208f4f16"
        }
      },
      "request": {
        "method": "PUT",
        "url": "Observation/94f5feb0-b01a-e1ee-e418-052f9efb84c7"
      }
    },
    {
      "fullUrl": "urn:uuid:86c2a926-eb7a-5afa-a509-f2f0e4d6d1bb",
      "resource": {
        "resourceType": "DiagnosticReport",
        "id": "86c2a926-eb7a-5afa-a509-f2f0e4d6d1bb",
        "identifier": [
          {
            "system": "urn:ietf:rfc:3986",
            "value": "urn:uuid:cb178d2e-569f-4eaf-8de9-aa857dfa7362"
          }
        ],
        "status": "final",
        "code": {
          "coding": [
            {
              "code": "10839-9",
              "display": "Troponin I.cardiac [Mass/volume] in Serum or Plasma",
              "system": "http://loinc.org"
            }
          ]
        },
        "subject": {
          "reference": "Patient/f9d2a645-e95c-40e4-bd00-f46f208f4f16"
        },
        "result": [
          {
            "reference": "Observation/78facf8f-f08a-26f9-5527-4bafe534a4f9"
          }
        ],
        "meta": {
          "source": [
            "ecr"
          ]
        }
      },
      "request": {
        "method": "PUT",
        "url": "DiagnosticReport/86c2a926-eb7a-5afa-a509-f2f0e4d6d1bb"
      }
    },
    {
      "fullUrl": "urn:uuid:78facf8f-f08a-26f9-5527-4bafe534a4f9",
      "resource": {
        "resourceType": "Observation",
        "id": "78facf8f-f08a-26f9-5527-4bafe534a4f9",
        "meta": {
          "profile": [
            "http://hl7.org/fhir/us/core/StructureDefinition/us-core-observationresults"
          ],
          "source": [
            "ecr"
          ]
        },
        "identifier": [
          {
            "system": "urn:oid:2.16.840.1.113883",
            "value": "https://fhir-ehr.cerner.com/r4/da0b5d99-573c-4f5e-aaf6-8d39fa93d033/Observation/M-19285932098/_history/1"
          }
        ],
        "category": [
          {
            "coding": [
              {
                "system": "http://terminology.hl7.org/CodeSystem/observation-category",
                "code": "laboratory"
              }
            ]
          }
        ],
        "status": "final",
        "code": {
          "coding": [
            {
              "code": "10839-9",
              "display": "Troponin I.cardiac [Mass/volume] in Serum or Plasma",
              "system": "http://loinc.org"
            }
          ]
        },
        "effectiveDateTime": "2022-04-15T20:14:00Z",
        "valueQuantity": {
          "value": 8.1,
          "unit": "ng/L"
        },
        "interpretation": [
          {
            "coding": [
              {
                "code": "N",
                "display": "Normal",
                "system": "http://terminology.hl7.org/CodeSystem/v3-ObservationInterpretation"
              }
            ]
          }
        ],
        "subject": {
          "reference": "Patient/f9d2a645-e95c-40e4-bd00-f46f208f4f16"
        }
      },
      "request": {
        "method": "PUT",
        "url": "Observation/78facf8f-f08a-26f9-5527-4bafe534a4f9"
      }
    },
    {
      "fullUrl": "urn:uuid:f21f449e-c482-83c1-a3aa-1fc9ea052ce4",
      "resource": {
        "resourceType": "DiagnosticReport",
        "id": "f21f449e-c482-83c1-a3aa-1fc9ea052ce4",
        "identifier": [
          {
            "system": "urn:ietf:rfc:3986",
            "value": "urn:uuid:51947a30-9b22-4fe3-ad8d-83a11cc504e2"
          }
        ],
        "status": "final",
        "code": {
          "coding": [
            {
              "code": "10839-9",
              "display": "Troponin I.cardiac [Mass/volume] in Serum or Plasma",
              "system": "http://loinc.org"
            }
          ]
        },
        "subject": {
          "reference": "Patient/f9d2a645-e95c-40e4-bd00-f46f208f4f16"
        },
        "result": [
          {
            "reference": "Observation/e5294ace-dc90-71ab-1183-0ecce3cdbb57"
          }
        ],
        "meta": {
          "source": [
            "ecr"
          ]
        }
      },
      "request": {
        "method": "PUT",
        "url": "DiagnosticReport/f21f449e-c482-83c1-a3aa-1fc9ea052ce4"
      }
    },
    {
      "fullUrl": "urn:uuid:e5294ace-dc90-71ab-1183-0ecce3cdbb57",
      "resource": {
        "resourceType": "Observation",
        "id": "e5294ace-dc90-71ab-1183-0ecce3cdbb57",
        "meta": {
          "profile": [
            "http://hl7.org/fhir/us/core/StructureDefinition/us-core-observationresults"
          ],
          "source": [
            "ecr"
          ]
        },
        "identifier": [
          {
            "system": "urn:oid:2.16.840.1.113883",
            "value": "https://fhir-ehr.cerner.com/r4/da0b5d99-573c-4f5e-aaf6-8d39fa93d033/Observation/M-19285552731/_history/1"
          }
        ],
        "category": [
          {
            "coding": [
              {
                "system": "http://terminology.hl7.org/CodeSystem/observation-category",
                "code": "laboratory"
              }
            ]
          }
        ],
        "status": "final",
        "code": {
          "coding": [
            {
              "code": "10839-9",
              "display": "Troponin I.cardiac [Mass/volume] in Serum or Plasma",
              "system": "http://loinc.org"
            }
          ]
        },
        "effectiveDateTime": "2022-04-15T19:01:00Z",
        "valueQuantity": {
          "value": 9.5,
          "unit": "ng/L"
        },
        "interpretation": [
          {
            "coding": [
              {
                "code": "N",
                "display": "Normal",
                "system": "http://terminology.hl7.org/CodeSystem/v3-ObservationInterpretation"
              }
            ]
          }
        ],
        "subject": {
          "reference": "Patient/f9d2a645-e95c-40e4-bd00-f46f208f4f16"
        }
      },
      "request": {
        "method": "PUT",
        "url": "Observation/e5294ace-dc90-71ab-1183-0ecce3cdbb57"
      }
    },
    {
      "fullUrl": "urn:uuid:0f861734-c8b9-8fa4-8c73-20e88b7d0958",
      "resource": {
        "resourceType": "DiagnosticReport",
        "id": "0f861734-c8b9-8fa4-8c73-20e88b7d0958",
        "identifier": [
          {
            "system": "urn:ietf:rfc:3986",
            "value": "urn:uuid:63f853f4-cadf-41f7-ba4c-081e430abeaa"
          }
        ],
        "status": "final",
        "code": {
          "coding": [
            {
              "code": "33762-6",
              "display": "Natriuretic peptide.B prohormone N-Terminal [Mass/volume] in Serum or Plasma",
              "system": "http://loinc.org"
            }
          ]
        },
        "subject": {
          "reference": "Patient/f9d2a645-e95c-40e4-bd00-f46f208f4f16"
        },
        "result": [
          {
            "reference": "Observation/a5487fa0-7b9c-4b9e-d5fd-78aaf89a3bd3"
          }
        ],
        "meta": {
          "source": [
            "ecr"
          ]
        }
      },
      "request": {
        "method": "PUT",
        "url": "DiagnosticReport/0f861734-c8b9-8fa4-8c73-20e88b7d0958"
      }
    },
    {
      "fullUrl": "urn:uuid:a5487fa0-7b9c-4b9e-d5fd-78aaf89a3bd3",
      "resource": {
        "resourceType": "Observation",
        "id": "a5487fa0-7b9c-4b9e-d5fd-78aaf89a3bd3",
        "meta": {
          "profile": [
            "http://hl7.org/fhir/us/core/StructureDefinition/us-core-observationresults"
          ],
          "source": [
            "ecr"
          ]
        },
        "identifier": [
          {
            "system": "urn:oid:2.16.840.1.113883",
            "value": "https://fhir-ehr.cerner.com/r4/da0b5d99-573c-4f5e-aaf6-8d39fa93d033/Observation/M-19285552724/_history/1"
          }
        ],
        "category": [
          {
            "coding": [
              {
                "system": "http://terminology.hl7.org/CodeSystem/observation-category",
                "code": "laboratory"
              }
            ]
          }
        ],
        "status": "final",
        "code": {
          "coding": [
            {
              "code": "33762-6",
              "display": "Natriuretic peptide.B prohormone N-Terminal [Mass/volume] in Serum or Plasma",
              "system": "http://loinc.org"
            }
          ]
        },
        "effectiveDateTime": "2022-04-15T19:01:00Z",
        "valueQuantity": {
          "value": 84,
          "unit": "pg/mL"
        },
        "interpretation": [
          {
            "coding": [
              {
                "code": "N",
                "display": "Normal",
                "system": "http://terminology.hl7.org/CodeSystem/v3-ObservationInterpretation"
              }
            ]
          }
        ],
        "subject": {
          "reference": "Patient/f9d2a645-e95c-40e4-bd00-f46f208f4f16"
        }
      },
      "request": {
        "method": "PUT",
        "url": "Observation/a5487fa0-7b9c-4b9e-d5fd-78aaf89a3bd3"
      }
    },
    {
      "fullUrl": "urn:uuid:cdcec461-63fb-b4a4-5270-0bf22762d0b8",
      "resource": {
        "resourceType": "DiagnosticReport",
        "id": "cdcec461-63fb-b4a4-5270-0bf22762d0b8",
        "identifier": [
          {
            "system": "urn:ietf:rfc:3986",
            "value": "urn:uuid:3cf58e92-ea42-421b-bdbe-0c8df5ca5b90"
          }
        ],
        "status": "final",
        "code": {
          "coding": [
            {
              "code": "35592-5",
              "display": "Creatinine renal clearance/1.73 sq M.predicted by Cockcroft-Gault formula, BSA formula",
              "system": "http://loinc.org"
            }
          ]
        },
        "subject": {
          "reference": "Patient/f9d2a645-e95c-40e4-bd00-f46f208f4f16"
        },
        "result": [
          {
            "reference": "Observation/a3c3b47a-bf65-775e-7f5c-2c215cdd613c"
          }
        ],
        "meta": {
          "source": [
            "ecr"
          ]
        }
      },
      "request": {
        "method": "PUT",
        "url": "DiagnosticReport/cdcec461-63fb-b4a4-5270-0bf22762d0b8"
      }
    },
    {
      "fullUrl": "urn:uuid:a3c3b47a-bf65-775e-7f5c-2c215cdd613c",
      "resource": {
        "resourceType": "Observation",
        "id": "a3c3b47a-bf65-775e-7f5c-2c215cdd613c",
        "meta": {
          "profile": [
            "http://hl7.org/fhir/us/core/StructureDefinition/us-core-observationresults"
          ],
          "source": [
            "ecr"
          ]
        },
        "identifier": [
          {
            "system": "urn:oid:2.16.840.1.113883",
            "value": "https://fhir-ehr.cerner.com/r4/da0b5d99-573c-4f5e-aaf6-8d39fa93d033/Observation/M-19284816088/_history/1"
          }
        ],
        "category": [
          {
            "coding": [
              {
                "system": "http://terminology.hl7.org/CodeSystem/observation-category",
                "code": "laboratory"
              }
            ]
          }
        ],
        "status": "final",
        "code": {
          "coding": [
            {
              "code": "35592-5",
              "display": "Creatinine renal clearance/1.73 sq M.predicted by Cockcroft-Gault formula, BSA formula",
              "system": "http://loinc.org"
            }
          ]
        },
        "effectiveDateTime": "2022-04-15T17:38:00Z",
        "valueQuantity": {
          "value": 52.76,
          "unit": "mL/min"
        },
        "subject": {
          "reference": "Patient/f9d2a645-e95c-40e4-bd00-f46f208f4f16"
        }
      },
      "request": {
        "method": "PUT",
        "url": "Observation/a3c3b47a-bf65-775e-7f5c-2c215cdd613c"
      }
    },
    {
      "fullUrl": "urn:uuid:cd818065-61f9-6310-f48b-5255f1b0f680",
      "resource": {
        "resourceType": "DiagnosticReport",
        "id": "cd818065-61f9-6310-f48b-5255f1b0f680",
        "identifier": [
          {
            "system": "urn:ietf:rfc:3986",
            "value": "urn:uuid:1388dec4-bafe-4ea1-b649-9b78c3e96c09"
          }
        ],
        "status": "final",
        "code": {
          "coding": [
            {
              "code": "95419-8",
              "display": "Whether the patient has symptoms related to condition of interest",
              "system": "http://loinc.org"
            }
          ]
        },
        "subject": {
          "reference": "Patient/f9d2a645-e95c-40e4-bd00-f46f208f4f16"
        },
        "result": [
          {
            "reference": "Observation/30bf6f23-8624-eaa9-fb82-678901f75c5e"
          }
        ],
        "meta": {
          "source": [
            "ecr"
          ]
        }
      },
      "request": {
        "method": "PUT",
        "url": "DiagnosticReport/cd818065-61f9-6310-f48b-5255f1b0f680"
      }
    },
    {
      "fullUrl": "urn:uuid:30bf6f23-8624-eaa9-fb82-678901f75c5e",
      "resource": {
        "resourceType": "Observation",
        "id": "30bf6f23-8624-eaa9-fb82-678901f75c5e",
        "meta": {
          "profile": [
            "http://hl7.org/fhir/us/core/StructureDefinition/us-core-observationresults"
          ],
          "source": [
            "ecr"
          ]
        },
        "identifier": [
          {
            "system": "urn:oid:2.16.840.1.113883",
            "value": "https://fhir-ehr.cerner.com/r4/da0b5d99-573c-4f5e-aaf6-8d39fa93d033/Observation/M-19286860526/_history/1"
          }
        ],
        "category": [
          {
            "coding": [
              {
                "system": "http://terminology.hl7.org/CodeSystem/observation-category",
                "code": "laboratory"
              }
            ]
          }
        ],
        "status": "final",
        "code": {
          "coding": [
            {
              "code": "95419-8",
              "display": "Whether the patient has symptoms related to condition of interest",
              "system": "http://loinc.org"
            }
          ]
        },
        "effectiveDateTime": "2022-04-15T17:03:00Z",
        "valueCodeableConcept": {
          "coding": [
            {
              "code": "373066001",
              "display": "Yes (qualifier value)",
              "system": "http://snomed.info/sct"
            }
          ]
        },
        "interpretation": [
          {
            "coding": [
              {
                "code": "N",
                "display": "Normal",
                "system": "http://terminology.hl7.org/CodeSystem/v3-ObservationInterpretation"
              }
            ]
          }
        ],
        "subject": {
          "reference": "Patient/f9d2a645-e95c-40e4-bd00-f46f208f4f16"
        }
      },
      "request": {
        "method": "PUT",
        "url": "Observation/30bf6f23-8624-eaa9-fb82-678901f75c5e"
      }
    },
    {
      "fullUrl": "urn:uuid:de0b9a49-f884-cdf7-587c-c6a513d4fe2e",
      "resource": {
        "resourceType": "DiagnosticReport",
        "id": "de0b9a49-f884-cdf7-587c-c6a513d4fe2e",
        "identifier": [
          {
            "system": "urn:ietf:rfc:3986",
            "value": "urn:uuid:433df364-fa71-4172-9363-823fc86766d9"
          }
        ],
        "status": "final",
        "code": {
          "coding": [
            {
              "code": "95420-6",
              "display": "Whether the patient was admitted to intensive care unit (ICU) for condition of interest",
              "system": "http://loinc.org"
            }
          ]
        },
        "subject": {
          "reference": "Patient/f9d2a645-e95c-40e4-bd00-f46f208f4f16"
        },
        "result": [
          {
            "reference": "Observation/c3029932-4c25-a515-b4c6-e35e5764b464"
          }
        ],
        "meta": {
          "source": [
            "ecr"
          ]
        }
      },
      "request": {
        "method": "PUT",
        "url": "DiagnosticReport/de0b9a49-f884-cdf7-587c-c6a513d4fe2e"
      }
    },
    {
      "fullUrl": "urn:uuid:c3029932-4c25-a515-b4c6-e35e5764b464",
      "resource": {
        "resourceType": "Observation",
        "id": "c3029932-4c25-a515-b4c6-e35e5764b464",
        "meta": {
          "profile": [
            "http://hl7.org/fhir/us/core/StructureDefinition/us-core-observationresults"
          ],
          "source": [
            "ecr"
          ]
        },
        "identifier": [
          {
            "system": "urn:oid:2.16.840.1.113883",
            "value": "https://fhir-ehr.cerner.com/r4/da0b5d99-573c-4f5e-aaf6-8d39fa93d033/Observation/M-19286860530/_history/1"
          }
        ],
        "category": [
          {
            "coding": [
              {
                "system": "http://terminology.hl7.org/CodeSystem/observation-category",
                "code": "laboratory"
              }
            ]
          }
        ],
        "status": "final",
        "code": {
          "coding": [
            {
              "code": "95420-6",
              "display": "Whether the patient was admitted to intensive care unit (ICU) for condition of interest",
              "system": "http://loinc.org"
            }
          ]
        },
        "effectiveDateTime": "2022-04-15T17:03:00Z",
        "valueCodeableConcept": {
          "coding": [
            {
              "code": "373067005",
              "display": "No (qualifier value)",
              "system": "http://snomed.info/sct"
            }
          ]
        },
        "interpretation": [
          {
            "coding": [
              {
                "code": "N",
                "display": "Normal",
                "system": "http://terminology.hl7.org/CodeSystem/v3-ObservationInterpretation"
              }
            ]
          }
        ],
        "subject": {
          "reference": "Patient/f9d2a645-e95c-40e4-bd00-f46f208f4f16"
        }
      },
      "request": {
        "method": "PUT",
        "url": "Observation/c3029932-4c25-a515-b4c6-e35e5764b464"
      }
    },
    {
      "fullUrl": "urn:uuid:f53fecb0-d1e4-0e4b-d501-d58d73bf3cbf",
      "resource": {
        "resourceType": "DiagnosticReport",
        "id": "f53fecb0-d1e4-0e4b-d501-d58d73bf3cbf",
        "identifier": [
          {
            "system": "urn:ietf:rfc:3986",
            "value": "urn:uuid:3fc984f4-2d68-4c3a-97ba-00e0cf4c2331"
          }
        ],
        "status": "final",
        "code": {
          "coding": [
            {
              "code": "95421-4",
              "display": "Whether patient resides in a congregate care setting",
              "system": "http://loinc.org"
            }
          ]
        },
        "subject": {
          "reference": "Patient/f9d2a645-e95c-40e4-bd00-f46f208f4f16"
        },
        "result": [
          {
            "reference": "Observation/f50c588e-778b-2fb8-95ca-b2895c85dcdd"
          }
        ],
        "meta": {
          "source": [
            "ecr"
          ]
        }
      },
      "request": {
        "method": "PUT",
        "url": "DiagnosticReport/f53fecb0-d1e4-0e4b-d501-d58d73bf3cbf"
      }
    },
    {
      "fullUrl": "urn:uuid:f50c588e-778b-2fb8-95ca-b2895c85dcdd",
      "resource": {
        "resourceType": "Observation",
        "id": "f50c588e-778b-2fb8-95ca-b2895c85dcdd",
        "meta": {
          "profile": [
            "http://hl7.org/fhir/us/core/StructureDefinition/us-core-observationresults"
          ],
          "source": [
            "ecr"
          ]
        },
        "identifier": [
          {
            "system": "urn:oid:2.16.840.1.113883",
            "value": "https://fhir-ehr.cerner.com/r4/da0b5d99-573c-4f5e-aaf6-8d39fa93d033/Observation/M-19286860536/_history/1"
          }
        ],
        "category": [
          {
            "coding": [
              {
                "system": "http://terminology.hl7.org/CodeSystem/observation-category",
                "code": "laboratory"
              }
            ]
          }
        ],
        "status": "final",
        "code": {
          "coding": [
            {
              "code": "95421-4",
              "display": "Whether patient resides in a congregate care setting",
              "system": "http://loinc.org"
            }
          ]
        },
        "effectiveDateTime": "2022-04-15T17:03:00Z",
        "valueCodeableConcept": {
          "coding": [
            {
              "code": "373067005",
              "display": "No (qualifier value)",
              "system": "http://snomed.info/sct"
            }
          ]
        },
        "interpretation": [
          {
            "coding": [
              {
                "code": "N",
                "display": "Normal",
                "system": "http://terminology.hl7.org/CodeSystem/v3-ObservationInterpretation"
              }
            ]
          }
        ],
        "subject": {
          "reference": "Patient/f9d2a645-e95c-40e4-bd00-f46f208f4f16"
        }
      },
      "request": {
        "method": "PUT",
        "url": "Observation/f50c588e-778b-2fb8-95ca-b2895c85dcdd"
      }
    },
    {
      "fullUrl": "urn:uuid:5e290d58-b0b9-5e36-b348-c87fa7581c78",
      "resource": {
        "resourceType": "DiagnosticReport",
        "id": "5e290d58-b0b9-5e36-b348-c87fa7581c78",
        "identifier": [
          {
            "system": "urn:ietf:rfc:3986",
            "value": "urn:uuid:3c1e9587-8eb7-4137-839d-a11e6b75cbfd"
          }
        ],
        "status": "final",
        "code": {
          "coding": [
            {
              "code": "95418-0",
              "display": "Whether patient is employed in a healthcare setting",
              "system": "http://loinc.org"
            }
          ]
        },
        "subject": {
          "reference": "Patient/f9d2a645-e95c-40e4-bd00-f46f208f4f16"
        },
        "result": [
          {
            "reference": "Observation/1cec98b6-3381-dd8d-360c-21d5ed818f62"
          }
        ],
        "meta": {
          "source": [
            "ecr"
          ]
        }
      },
      "request": {
        "method": "PUT",
        "url": "DiagnosticReport/5e290d58-b0b9-5e36-b348-c87fa7581c78"
      }
    },
    {
      "fullUrl": "urn:uuid:1cec98b6-3381-dd8d-360c-21d5ed818f62",
      "resource": {
        "resourceType": "Observation",
        "id": "1cec98b6-3381-dd8d-360c-21d5ed818f62",
        "meta": {
          "profile": [
            "http://hl7.org/fhir/us/core/StructureDefinition/us-core-observationresults"
          ],
          "source": [
            "ecr"
          ]
        },
        "identifier": [
          {
            "system": "urn:oid:2.16.840.1.113883",
            "value": "https://fhir-ehr.cerner.com/r4/da0b5d99-573c-4f5e-aaf6-8d39fa93d033/Observation/M-19286860534/_history/1"
          }
        ],
        "category": [
          {
            "coding": [
              {
                "system": "http://terminology.hl7.org/CodeSystem/observation-category",
                "code": "laboratory"
              }
            ]
          }
        ],
        "status": "final",
        "code": {
          "coding": [
            {
              "code": "95418-0",
              "display": "Whether patient is employed in a healthcare setting",
              "system": "http://loinc.org"
            }
          ]
        },
        "effectiveDateTime": "2022-04-15T17:03:00Z",
        "valueCodeableConcept": {
          "coding": [
            {
              "code": "373067005",
              "display": "No (qualifier value)",
              "system": "http://snomed.info/sct"
            }
          ]
        },
        "interpretation": [
          {
            "coding": [
              {
                "code": "N",
                "display": "Normal",
                "system": "http://terminology.hl7.org/CodeSystem/v3-ObservationInterpretation"
              }
            ]
          }
        ],
        "subject": {
          "reference": "Patient/f9d2a645-e95c-40e4-bd00-f46f208f4f16"
        }
      },
      "request": {
        "method": "PUT",
        "url": "Observation/1cec98b6-3381-dd8d-360c-21d5ed818f62"
      }
    },
    {
      "fullUrl": "urn:uuid:1c46cff6-6f74-5a63-58a1-cd3491f11335",
      "resource": {
        "resourceType": "DiagnosticReport",
        "id": "1c46cff6-6f74-5a63-58a1-cd3491f11335",
        "identifier": [
          {
            "system": "urn:ietf:rfc:3986",
            "value": "urn:uuid:3beab26e-50fd-4836-9549-1e730b5abba2"
          }
        ],
        "status": "final",
        "code": {
          "coding": [
            {
              "code": "94309-2",
              "display": "SARS-CoV-2 (COVID-19) RNA [Presence] in Specimen by NAA with probe detection",
              "system": "http://loinc.org"
            }
          ]
        },
        "subject": {
          "reference": "Patient/f9d2a645-e95c-40e4-bd00-f46f208f4f16"
        },
        "result": [
          {
            "reference": "Observation/7f07e455-5574-a648-1543-cba70270a4e4"
          }
        ],
        "meta": {
          "source": [
            "ecr"
          ]
        }
      },
      "request": {
        "method": "PUT",
        "url": "DiagnosticReport/1c46cff6-6f74-5a63-58a1-cd3491f11335"
      }
    },
    {
      "fullUrl": "urn:uuid:7f07e455-5574-a648-1543-cba70270a4e4",
      "resource": {
        "resourceType": "Observation",
        "id": "7f07e455-5574-a648-1543-cba70270a4e4",
        "meta": {
          "profile": [
            "http://hl7.org/fhir/us/core/StructureDefinition/us-core-observationresults"
          ],
          "source": [
            "ecr"
          ]
        },
        "identifier": [
          {
            "system": "urn:oid:2.16.840.1.113883",
            "value": "https://fhir-ehr.cerner.com/r4/da0b5d99-573c-4f5e-aaf6-8d39fa93d033/Observation/M-19286860540/_history/1"
          }
        ],
        "category": [
          {
            "coding": [
              {
                "system": "http://terminology.hl7.org/CodeSystem/observation-category",
                "code": "laboratory"
              }
            ]
          }
        ],
        "status": "final",
        "code": {
          "coding": [
            {
              "code": "94309-2",
              "display": "SARS-CoV-2 Interp:",
              "system": "http://loinc.org"
            }
          ]
        },
        "effectiveDateTime": "2022-04-15T17:03:00Z",
        "subject": {
          "reference": "Patient/f9d2a645-e95c-40e4-bd00-f46f208f4f16"
        }
      },
      "request": {
        "method": "PUT",
        "url": "Observation/7f07e455-5574-a648-1543-cba70270a4e4"
      }
    },
    {
      "fullUrl": "urn:uuid:2bc92294-07cd-b7da-9cd2-858e1c473750",
      "resource": {
        "resourceType": "DiagnosticReport",
        "id": "2bc92294-07cd-b7da-9cd2-858e1c473750",
        "identifier": [
          {
            "system": "urn:ietf:rfc:3986",
            "value": "urn:uuid:fa74e938-982b-434f-a9d2-715eca400918"
          }
        ],
        "status": "final",
        "code": {
          "coding": [
            {
              "code": "94500-6",
              "display": "SARS-CoV-2 (COVID-19) RNA [Presence] in Respiratory system specimen by NAA with probe detection",
              "system": "http://loinc.org"
            }
          ]
        },
        "subject": {
          "reference": "Patient/f9d2a645-e95c-40e4-bd00-f46f208f4f16"
        },
        "result": [
          {
            "reference": "Observation/562aaa4c-b024-2655-efe5-1155eab8aabc"
          }
        ],
        "meta": {
          "source": [
            "ecr"
          ]
        }
      },
      "request": {
        "method": "PUT",
        "url": "DiagnosticReport/2bc92294-07cd-b7da-9cd2-858e1c473750"
      }
    },
    {
      "fullUrl": "urn:uuid:562aaa4c-b024-2655-efe5-1155eab8aabc",
      "resource": {
        "resourceType": "Observation",
        "id": "562aaa4c-b024-2655-efe5-1155eab8aabc",
        "meta": {
          "profile": [
            "http://hl7.org/fhir/us/core/StructureDefinition/us-core-observationresults"
          ],
          "source": [
            "ecr"
          ]
        },
        "identifier": [
          {
            "system": "urn:oid:2.16.840.1.113883",
            "value": "https://fhir-ehr.cerner.com/r4/da0b5d99-573c-4f5e-aaf6-8d39fa93d033/Observation/M-19286860538/_history/1"
          }
        ],
        "category": [
          {
            "coding": [
              {
                "system": "http://terminology.hl7.org/CodeSystem/observation-category",
                "code": "laboratory"
              }
            ]
          }
        ],
        "status": "final",
        "code": {
          "coding": [
            {
              "code": "94500-6",
              "display": "SARS-CoV-2 PCR",
              "system": "http://loinc.org"
            }
          ]
        },
        "effectiveDateTime": "2022-04-15T17:03:00Z",
        "valueCodeableConcept": {
          "coding": [
            {
              "code": "260385009",
              "display": "Negative (qualifier value)",
              "system": "http://snomed.info/sct"
            }
          ]
        },
        "interpretation": [
          {
            "coding": [
              {
                "code": "N",
                "display": "Normal",
                "system": "http://terminology.hl7.org/CodeSystem/v3-ObservationInterpretation"
              }
            ]
          }
        ],
        "subject": {
          "reference": "Patient/f9d2a645-e95c-40e4-bd00-f46f208f4f16"
        }
      },
      "request": {
        "method": "PUT",
        "url": "Observation/562aaa4c-b024-2655-efe5-1155eab8aabc"
      }
    },
    {
      "fullUrl": "urn:uuid:72dc2bfd-3ced-741e-5c91-2b787f9964ea",
      "resource": {
        "resourceType": "DiagnosticReport",
        "id": "72dc2bfd-3ced-741e-5c91-2b787f9964ea",
        "identifier": [
          {
            "system": "urn:ietf:rfc:3986",
            "value": "urn:uuid:1461c0ad-c351-4369-b66c-30e8512c0249"
          }
        ],
        "status": "final",
        "code": {
          "coding": [
            {
              "code": "50384-7",
              "display": "Glomerular filtration rate/1.73 sq M.predicted [Volume Rate/Area] in Serum, Plasma or Blood by Creatinine-based formula (Schwartz)",
              "system": "http://loinc.org"
            }
          ]
        },
        "subject": {
          "reference": "Patient/f9d2a645-e95c-40e4-bd00-f46f208f4f16"
        },
        "result": [
          {
            "reference": "Observation/fc5517ad-dbab-6e81-d88a-c7589f32a820"
          }
        ],
        "meta": {
          "source": [
            "ecr"
          ]
        }
      },
      "request": {
        "method": "PUT",
        "url": "DiagnosticReport/72dc2bfd-3ced-741e-5c91-2b787f9964ea"
      }
    },
    {
      "fullUrl": "urn:uuid:fc5517ad-dbab-6e81-d88a-c7589f32a820",
      "resource": {
        "resourceType": "Observation",
        "id": "fc5517ad-dbab-6e81-d88a-c7589f32a820",
        "meta": {
          "profile": [
            "http://hl7.org/fhir/us/core/StructureDefinition/us-core-observationresults"
          ],
          "source": [
            "ecr"
          ]
        },
        "identifier": [
          {
            "system": "urn:oid:2.16.840.1.113883",
            "value": "https://fhir-ehr.cerner.com/r4/da0b5d99-573c-4f5e-aaf6-8d39fa93d033/Observation/M-19284799735/_history/1"
          }
        ],
        "category": [
          {
            "coding": [
              {
                "system": "http://terminology.hl7.org/CodeSystem/observation-category",
                "code": "laboratory"
              }
            ]
          }
        ],
        "status": "final",
        "code": {
          "coding": [
            {
              "code": "50384-7",
              "display": "Glomerular filtration rate/1.73 sq M.predicted [Volume Rate/Area] in Serum, Plasma or Blood by Creatinine-based formula (Schwartz)",
              "system": "http://loinc.org"
            }
          ]
        },
        "effectiveDateTime": "2022-04-15T17:03:00Z",
        "valueString": "Not Reported",
        "subject": {
          "reference": "Patient/f9d2a645-e95c-40e4-bd00-f46f208f4f16"
        }
      },
      "request": {
        "method": "PUT",
        "url": "Observation/fc5517ad-dbab-6e81-d88a-c7589f32a820"
      }
    },
    {
      "fullUrl": "urn:uuid:cf151812-add2-39e3-3da5-5cd8cb4dafe3",
      "resource": {
        "resourceType": "DiagnosticReport",
        "id": "cf151812-add2-39e3-3da5-5cd8cb4dafe3",
        "identifier": [
          {
            "system": "urn:ietf:rfc:3986",
            "value": "urn:uuid:adc53b02-1f6a-4f30-b2d6-734b96080342"
          }
        ],
        "status": "final",
        "code": {
          "coding": [
            {
              "code": "76080-1",
              "display": "Influenza virus B RNA [Presence] in Nasopharynx by NAA with probe detection",
              "system": "http://loinc.org"
            }
          ]
        },
        "subject": {
          "reference": "Patient/f9d2a645-e95c-40e4-bd00-f46f208f4f16"
        },
        "result": [
          {
            "reference": "Observation/986e51be-bcb9-0e85-26de-ee93f55b9652"
          }
        ],
        "meta": {
          "source": [
            "ecr"
          ]
        }
      },
      "request": {
        "method": "PUT",
        "url": "DiagnosticReport/cf151812-add2-39e3-3da5-5cd8cb4dafe3"
      }
    },
    {
      "fullUrl": "urn:uuid:986e51be-bcb9-0e85-26de-ee93f55b9652",
      "resource": {
        "resourceType": "Observation",
        "id": "986e51be-bcb9-0e85-26de-ee93f55b9652",
        "meta": {
          "profile": [
            "http://hl7.org/fhir/us/core/StructureDefinition/us-core-observationresults"
          ],
          "source": [
            "ecr"
          ]
        },
        "identifier": [
          {
            "system": "urn:oid:2.16.840.1.113883",
            "value": "https://fhir-ehr.cerner.com/r4/da0b5d99-573c-4f5e-aaf6-8d39fa93d033/Observation/M-19286860544/_history/1"
          }
        ],
        "category": [
          {
            "coding": [
              {
                "system": "http://terminology.hl7.org/CodeSystem/observation-category",
                "code": "laboratory"
              }
            ]
          }
        ],
        "status": "final",
        "code": {
          "coding": [
            {
              "code": "76080-1",
              "display": "Influenza virus B RNA [Presence] in Nasopharynx by NAA with probe detection",
              "system": "http://loinc.org"
            }
          ]
        },
        "effectiveDateTime": "2022-04-15T17:03:00Z",
        "interpretation": [
          {
            "coding": [
              {
                "code": "N",
                "display": "Normal",
                "system": "http://terminology.hl7.org/CodeSystem/v3-ObservationInterpretation"
              }
            ]
          }
        ],
        "subject": {
          "reference": "Patient/f9d2a645-e95c-40e4-bd00-f46f208f4f16"
        }
      },
      "request": {
        "method": "PUT",
        "url": "Observation/986e51be-bcb9-0e85-26de-ee93f55b9652"
      }
    },
    {
      "fullUrl": "urn:uuid:4e8919d1-9bd3-5090-3d22-5ae2c983556b",
      "resource": {
        "resourceType": "DiagnosticReport",
        "id": "4e8919d1-9bd3-5090-3d22-5ae2c983556b",
        "identifier": [
          {
            "system": "urn:ietf:rfc:3986",
            "value": "urn:uuid:bf98a7a6-c7db-4954-9978-ba40fc1a00fb"
          }
        ],
        "status": "final",
        "code": {
          "coding": [
            {
              "code": "76078-5",
              "display": "Influenza virus A RNA [Presence] in Nasopharynx by NAA with probe detection",
              "system": "http://loinc.org"
            }
          ]
        },
        "subject": {
          "reference": "Patient/f9d2a645-e95c-40e4-bd00-f46f208f4f16"
        },
        "result": [
          {
            "reference": "Observation/6a6a5554-9b68-a91a-76d9-f32c051dfa62"
          }
        ],
        "meta": {
          "source": [
            "ecr"
          ]
        }
      },
      "request": {
        "method": "PUT",
        "url": "DiagnosticReport/4e8919d1-9bd3-5090-3d22-5ae2c983556b"
      }
    },
    {
      "fullUrl": "urn:uuid:6a6a5554-9b68-a91a-76d9-f32c051dfa62",
      "resource": {
        "resourceType": "Observation",
        "id": "6a6a5554-9b68-a91a-76d9-f32c051dfa62",
        "meta": {
          "profile": [
            "http://hl7.org/fhir/us/core/StructureDefinition/us-core-observationresults"
          ],
          "source": [
            "ecr"
          ]
        },
        "identifier": [
          {
            "system": "urn:oid:2.16.840.1.113883",
            "value": "https://fhir-ehr.cerner.com/r4/da0b5d99-573c-4f5e-aaf6-8d39fa93d033/Observation/M-19286860542/_history/1"
          }
        ],
        "category": [
          {
            "coding": [
              {
                "system": "http://terminology.hl7.org/CodeSystem/observation-category",
                "code": "laboratory"
              }
            ]
          }
        ],
        "status": "final",
        "code": {
          "coding": [
            {
              "code": "76078-5",
              "display": "Influenza virus A RNA [Presence] in Nasopharynx by NAA with probe detection",
              "system": "http://loinc.org"
            }
          ]
        },
        "effectiveDateTime": "2022-04-15T17:03:00Z",
        "valueCodeableConcept": {
          "coding": [
            {
              "code": "260415000",
              "display": "Not detected (qualifier value)",
              "system": "http://snomed.info/sct"
            }
          ]
        },
        "interpretation": [
          {
            "coding": [
              {
                "code": "N",
                "display": "Normal",
                "system": "http://terminology.hl7.org/CodeSystem/v3-ObservationInterpretation"
              }
            ]
          }
        ],
        "subject": {
          "reference": "Patient/f9d2a645-e95c-40e4-bd00-f46f208f4f16"
        }
      },
      "request": {
        "method": "PUT",
        "url": "Observation/6a6a5554-9b68-a91a-76d9-f32c051dfa62"
      }
    },
    {
      "fullUrl": "urn:uuid:f55b2d6f-290f-889f-0590-93f81a755979",
      "resource": {
        "resourceType": "DiagnosticReport",
        "id": "f55b2d6f-290f-889f-0590-93f81a755979",
        "identifier": [
          {
            "system": "urn:ietf:rfc:3986",
            "value": "urn:uuid:de9d66f9-d819-454b-9531-34865ab8d138"
          }
        ],
        "status": "final",
        "code": {
          "coding": [
            {
              "code": "18182-6",
              "display": "Osmolality of Serum or Plasma by calculation",
              "system": "http://loinc.org"
            }
          ]
        },
        "subject": {
          "reference": "Patient/f9d2a645-e95c-40e4-bd00-f46f208f4f16"
        },
        "result": [
          {
            "reference": "Observation/30b4c04b-9788-b94d-bd4b-eb849b2d9102"
          }
        ],
        "meta": {
          "source": [
            "ecr"
          ]
        }
      },
      "request": {
        "method": "PUT",
        "url": "DiagnosticReport/f55b2d6f-290f-889f-0590-93f81a755979"
      }
    },
    {
      "fullUrl": "urn:uuid:30b4c04b-9788-b94d-bd4b-eb849b2d9102",
      "resource": {
        "resourceType": "Observation",
        "id": "30b4c04b-9788-b94d-bd4b-eb849b2d9102",
        "meta": {
          "profile": [
            "http://hl7.org/fhir/us/core/StructureDefinition/us-core-observationresults"
          ],
          "source": [
            "ecr"
          ]
        },
        "identifier": [
          {
            "system": "urn:oid:2.16.840.1.113883",
            "value": "https://fhir-ehr.cerner.com/r4/da0b5d99-573c-4f5e-aaf6-8d39fa93d033/Observation/M-19284816053/_history/1"
          }
        ],
        "category": [
          {
            "coding": [
              {
                "system": "http://terminology.hl7.org/CodeSystem/observation-category",
                "code": "laboratory"
              }
            ]
          }
        ],
        "status": "final",
        "code": {
          "coding": [
            {
              "code": "18182-6",
              "display": "Osmolality of Serum or Plasma by calculation",
              "system": "http://loinc.org"
            }
          ]
        },
        "effectiveDateTime": "2022-04-15T17:03:00Z",
        "valueQuantity": {
          "value": 270,
          "unit": "mOsmol/kg"
        },
        "interpretation": [
          {
            "coding": [
              {
                "code": "L",
                "display": "Low",
                "system": "http://terminology.hl7.org/CodeSystem/v3-ObservationInterpretation"
              }
            ]
          }
        ],
        "subject": {
          "reference": "Patient/f9d2a645-e95c-40e4-bd00-f46f208f4f16"
        }
      },
      "request": {
        "method": "PUT",
        "url": "Observation/30b4c04b-9788-b94d-bd4b-eb849b2d9102"
      }
    },
    {
      "fullUrl": "urn:uuid:f2ae7835-179b-cabb-0671-a59f62916914",
      "resource": {
        "resourceType": "DiagnosticReport",
        "id": "f2ae7835-179b-cabb-0671-a59f62916914",
        "identifier": [
          {
            "system": "urn:ietf:rfc:3986",
            "value": "urn:uuid:95b9bc33-746a-4950-9323-ec338e031b53"
          }
        ],
        "status": "final",
        "code": {
          "coding": [
            {
              "code": "1759-0",
              "display": "Albumin/Globulin [Mass Ratio] in Serum or Plasma",
              "system": "http://loinc.org"
            }
          ]
        },
        "subject": {
          "reference": "Patient/f9d2a645-e95c-40e4-bd00-f46f208f4f16"
        },
        "result": [
          {
            "reference": "Observation/9082dd79-88a9-1f15-c4fd-93d955d16ecd"
          }
        ],
        "meta": {
          "source": [
            "ecr"
          ]
        }
      },
      "request": {
        "method": "PUT",
        "url": "DiagnosticReport/f2ae7835-179b-cabb-0671-a59f62916914"
      }
    },
    {
      "fullUrl": "urn:uuid:9082dd79-88a9-1f15-c4fd-93d955d16ecd",
      "resource": {
        "resourceType": "Observation",
        "id": "9082dd79-88a9-1f15-c4fd-93d955d16ecd",
        "meta": {
          "profile": [
            "http://hl7.org/fhir/us/core/StructureDefinition/us-core-observationresults"
          ],
          "source": [
            "ecr"
          ]
        },
        "identifier": [
          {
            "system": "urn:oid:2.16.840.1.113883",
            "value": "https://fhir-ehr.cerner.com/r4/da0b5d99-573c-4f5e-aaf6-8d39fa93d033/Observation/M-19284816055/_history/1"
          }
        ],
        "category": [
          {
            "coding": [
              {
                "system": "http://terminology.hl7.org/CodeSystem/observation-category",
                "code": "laboratory"
              }
            ]
          }
        ],
        "status": "final",
        "code": {
          "coding": [
            {
              "code": "1759-0",
              "display": "Albumin/Globulin [Mass Ratio] in Serum or Plasma",
              "system": "http://loinc.org"
            }
          ]
        },
        "effectiveDateTime": "2022-04-15T17:03:00Z",
        "valueQuantity": {
          "value": 0.7
        },
        "interpretation": [
          {
            "coding": [
              {
                "code": "L",
                "display": "Low",
                "system": "http://terminology.hl7.org/CodeSystem/v3-ObservationInterpretation"
              }
            ]
          }
        ],
        "subject": {
          "reference": "Patient/f9d2a645-e95c-40e4-bd00-f46f208f4f16"
        }
      },
      "request": {
        "method": "PUT",
        "url": "Observation/9082dd79-88a9-1f15-c4fd-93d955d16ecd"
      }
    },
    {
      "fullUrl": "urn:uuid:2c98d4dd-1b52-a225-0b17-f49fb6fc5ded",
      "resource": {
        "resourceType": "DiagnosticReport",
        "id": "2c98d4dd-1b52-a225-0b17-f49fb6fc5ded",
        "identifier": [
          {
            "system": "urn:ietf:rfc:3986",
            "value": "urn:uuid:261feb5c-1956-4f9c-9cbe-d42b81f28cd2"
          }
        ],
        "status": "final",
        "code": {
          "coding": [
            {
              "code": "48642-3",
              "display": "Glomerular filtration rate/1.73 sq M.predicted among non-blacks [Volume Rate/Area] in Serum, Plasma or Blood by Creatinine-based formula (MDRD)",
              "system": "http://loinc.org"
            }
          ]
        },
        "subject": {
          "reference": "Patient/f9d2a645-e95c-40e4-bd00-f46f208f4f16"
        },
        "result": [
          {
            "reference": "Observation/09b3ec87-393a-9b52-1609-db67d66cf21c"
          }
        ],
        "meta": {
          "source": [
            "ecr"
          ]
        }
      },
      "request": {
        "method": "PUT",
        "url": "DiagnosticReport/2c98d4dd-1b52-a225-0b17-f49fb6fc5ded"
      }
    },
    {
      "fullUrl": "urn:uuid:09b3ec87-393a-9b52-1609-db67d66cf21c",
      "resource": {
        "resourceType": "Observation",
        "id": "09b3ec87-393a-9b52-1609-db67d66cf21c",
        "meta": {
          "profile": [
            "http://hl7.org/fhir/us/core/StructureDefinition/us-core-observationresults"
          ],
          "source": [
            "ecr"
          ]
        },
        "identifier": [
          {
            "system": "urn:oid:2.16.840.1.113883",
            "value": "https://fhir-ehr.cerner.com/r4/da0b5d99-573c-4f5e-aaf6-8d39fa93d033/Observation/M-19284799567/_history/1"
          }
        ],
        "category": [
          {
            "coding": [
              {
                "system": "http://terminology.hl7.org/CodeSystem/observation-category",
                "code": "laboratory"
              }
            ]
          }
        ],
        "status": "final",
        "code": {
          "coding": [
            {
              "code": "48642-3",
              "display": "Glomerular filtration rate/1.73 sq M.predicted among non-blacks [Volume Rate/Area] in Serum, Plasma or Blood by Creatinine-based formula (MDRD)",
              "system": "http://loinc.org"
            }
          ]
        },
        "effectiveDateTime": "2022-04-15T17:03:00Z",
        "valueQuantity": {
          "value": 70,
          "unit": "mL/min/1.73m2"
        },
        "interpretation": [
          {
            "coding": [
              {
                "code": "N",
                "display": "Normal",
                "system": "http://terminology.hl7.org/CodeSystem/v3-ObservationInterpretation"
              }
            ]
          }
        ],
        "subject": {
          "reference": "Patient/f9d2a645-e95c-40e4-bd00-f46f208f4f16"
        }
      },
      "request": {
        "method": "PUT",
        "url": "Observation/09b3ec87-393a-9b52-1609-db67d66cf21c"
      }
    },
    {
      "fullUrl": "urn:uuid:da1019c9-9302-e676-4214-083669e2b020",
      "resource": {
        "resourceType": "DiagnosticReport",
        "id": "da1019c9-9302-e676-4214-083669e2b020",
        "identifier": [
          {
            "system": "urn:ietf:rfc:3986",
            "value": "urn:uuid:3c4f71bf-0627-4d00-abcb-fa5ec364b78b"
          }
        ],
        "status": "final",
        "code": {
          "coding": [
            {
              "code": "48643-1",
              "display": "Glomerular filtration rate/1.73 sq M.predicted among blacks [Volume Rate/Area] in Serum, Plasma or Blood by Creatinine-based formula (MDRD)",
              "system": "http://loinc.org"
            }
          ]
        },
        "subject": {
          "reference": "Patient/f9d2a645-e95c-40e4-bd00-f46f208f4f16"
        },
        "result": [
          {
            "reference": "Observation/8170fe97-63af-51c4-3454-20966f4a2c7b"
          }
        ],
        "meta": {
          "source": [
            "ecr"
          ]
        }
      },
      "request": {
        "method": "PUT",
        "url": "DiagnosticReport/da1019c9-9302-e676-4214-083669e2b020"
      }
    },
    {
      "fullUrl": "urn:uuid:8170fe97-63af-51c4-3454-20966f4a2c7b",
      "resource": {
        "resourceType": "Observation",
        "id": "8170fe97-63af-51c4-3454-20966f4a2c7b",
        "meta": {
          "profile": [
            "http://hl7.org/fhir/us/core/StructureDefinition/us-core-observationresults"
          ],
          "source": [
            "ecr"
          ]
        },
        "identifier": [
          {
            "system": "urn:oid:2.16.840.1.113883",
            "value": "https://fhir-ehr.cerner.com/r4/da0b5d99-573c-4f5e-aaf6-8d39fa93d033/Observation/M-19284816090/_history/1"
          }
        ],
        "category": [
          {
            "coding": [
              {
                "system": "http://terminology.hl7.org/CodeSystem/observation-category",
                "code": "laboratory"
              }
            ]
          }
        ],
        "status": "final",
        "code": {
          "coding": [
            {
              "code": "48643-1",
              "display": "Glomerular filtration rate/1.73 sq M.predicted among blacks [Volume Rate/Area] in Serum, Plasma or Blood by Creatinine-based formula (MDRD)",
              "system": "http://loinc.org"
            }
          ]
        },
        "effectiveDateTime": "2022-04-15T17:03:00Z",
        "valueQuantity": {
          "value": 81,
          "unit": "mL/min/1.73m2"
        },
        "interpretation": [
          {
            "coding": [
              {
                "code": "N",
                "display": "Normal",
                "system": "http://terminology.hl7.org/CodeSystem/v3-ObservationInterpretation"
              }
            ]
          }
        ],
        "subject": {
          "reference": "Patient/f9d2a645-e95c-40e4-bd00-f46f208f4f16"
        }
      },
      "request": {
        "method": "PUT",
        "url": "Observation/8170fe97-63af-51c4-3454-20966f4a2c7b"
      }
    },
    {
      "fullUrl": "urn:uuid:fbeb7b6c-31dd-944e-56c1-90233fd0856c",
      "resource": {
        "resourceType": "DiagnosticReport",
        "id": "fbeb7b6c-31dd-944e-56c1-90233fd0856c",
        "identifier": [
          {
            "system": "urn:ietf:rfc:3986",
            "value": "urn:uuid:b6262f93-89cc-4789-a84e-f605ccae8c5e"
          }
        ],
        "status": "final",
        "code": {
          "coding": [
            {
              "code": "2951-2",
              "display": "Sodium [Moles/volume] in Serum or Plasma",
              "system": "http://loinc.org"
            }
          ]
        },
        "subject": {
          "reference": "Patient/f9d2a645-e95c-40e4-bd00-f46f208f4f16"
        },
        "result": [
          {
            "reference": "Observation/036a8d7b-df19-cbfa-37a7-21e9583ce4c1"
          }
        ],
        "meta": {
          "source": [
            "ecr"
          ]
        }
      },
      "request": {
        "method": "PUT",
        "url": "DiagnosticReport/fbeb7b6c-31dd-944e-56c1-90233fd0856c"
      }
    },
    {
      "fullUrl": "urn:uuid:036a8d7b-df19-cbfa-37a7-21e9583ce4c1",
      "resource": {
        "resourceType": "Observation",
        "id": "036a8d7b-df19-cbfa-37a7-21e9583ce4c1",
        "meta": {
          "profile": [
            "http://hl7.org/fhir/us/core/StructureDefinition/us-core-observationresults"
          ],
          "source": [
            "ecr"
          ]
        },
        "identifier": [
          {
            "system": "urn:oid:2.16.840.1.113883",
            "value": "https://fhir-ehr.cerner.com/r4/da0b5d99-573c-4f5e-aaf6-8d39fa93d033/Observation/M-19284816011/_history/1"
          }
        ],
        "category": [
          {
            "coding": [
              {
                "system": "http://terminology.hl7.org/CodeSystem/observation-category",
                "code": "laboratory"
              }
            ]
          }
        ],
        "status": "final",
        "code": {
          "coding": [
            {
              "code": "2951-2",
              "display": "Sodium [Moles/volume] in Serum or Plasma",
              "system": "http://loinc.org"
            }
          ]
        },
        "effectiveDateTime": "2022-04-15T17:03:00Z",
        "valueQuantity": {
          "value": 135,
          "unit": "mmol/L"
        },
        "interpretation": [
          {
            "coding": [
              {
                "code": "L",
                "display": "Low",
                "system": "http://terminology.hl7.org/CodeSystem/v3-ObservationInterpretation"
              }
            ]
          }
        ],
        "subject": {
          "reference": "Patient/f9d2a645-e95c-40e4-bd00-f46f208f4f16"
        }
      },
      "request": {
        "method": "PUT",
        "url": "Observation/036a8d7b-df19-cbfa-37a7-21e9583ce4c1"
      }
    },
    {
      "fullUrl": "urn:uuid:b05eea1c-ec11-f093-5840-0d6098714366",
      "resource": {
        "resourceType": "DiagnosticReport",
        "id": "b05eea1c-ec11-f093-5840-0d6098714366",
        "identifier": [
          {
            "system": "urn:ietf:rfc:3986",
            "value": "urn:uuid:6057e95b-305b-44c7-9361-5065f60d3478"
          }
        ],
        "status": "final",
        "code": {
          "coding": [
            {
              "code": "2823-3",
              "display": "Potassium [Moles/volume] in Serum or Plasma",
              "system": "http://loinc.org"
            }
          ]
        },
        "subject": {
          "reference": "Patient/f9d2a645-e95c-40e4-bd00-f46f208f4f16"
        },
        "result": [
          {
            "reference": "Observation/e32e94e6-7415-be5d-3292-0966edd22333"
          }
        ],
        "meta": {
          "source": [
            "ecr"
          ]
        }
      },
      "request": {
        "method": "PUT",
        "url": "DiagnosticReport/b05eea1c-ec11-f093-5840-0d6098714366"
      }
    },
    {
      "fullUrl": "urn:uuid:e32e94e6-7415-be5d-3292-0966edd22333",
      "resource": {
        "resourceType": "Observation",
        "id": "e32e94e6-7415-be5d-3292-0966edd22333",
        "meta": {
          "profile": [
            "http://hl7.org/fhir/us/core/StructureDefinition/us-core-observationresults"
          ],
          "source": [
            "ecr"
          ]
        },
        "identifier": [
          {
            "system": "urn:oid:2.16.840.1.113883",
            "value": "https://fhir-ehr.cerner.com/r4/da0b5d99-573c-4f5e-aaf6-8d39fa93d033/Observation/M-19284816013/_history/1"
          }
        ],
        "category": [
          {
            "coding": [
              {
                "system": "http://terminology.hl7.org/CodeSystem/observation-category",
                "code": "laboratory"
              }
            ]
          }
        ],
        "status": "final",
        "code": {
          "coding": [
            {
              "code": "2823-3",
              "display": "Potassium [Moles/volume] in Serum or Plasma",
              "system": "http://loinc.org"
            }
          ]
        },
        "effectiveDateTime": "2022-04-15T17:03:00Z",
        "valueQuantity": {
          "value": 4.0,
          "unit": "mmol/L"
        },
        "interpretation": [
          {
            "coding": [
              {
                "code": "N",
                "display": "Normal",
                "system": "http://terminology.hl7.org/CodeSystem/v3-ObservationInterpretation"
              }
            ]
          }
        ],
        "subject": {
          "reference": "Patient/f9d2a645-e95c-40e4-bd00-f46f208f4f16"
        }
      },
      "request": {
        "method": "PUT",
        "url": "Observation/e32e94e6-7415-be5d-3292-0966edd22333"
      }
    },
    {
      "fullUrl": "urn:uuid:f31be3d3-5f59-48e5-0d6f-9386a17a88b2",
      "resource": {
        "resourceType": "DiagnosticReport",
        "id": "f31be3d3-5f59-48e5-0d6f-9386a17a88b2",
        "identifier": [
          {
            "system": "urn:ietf:rfc:3986",
            "value": "urn:uuid:a7d54876-833a-4881-bb52-83e49daacbc1"
          }
        ],
        "status": "final",
        "code": {
          "coding": [
            {
              "code": "704-7",
              "display": "Basophils [#/volume] in Blood by Automated count",
              "system": "http://loinc.org"
            }
          ]
        },
        "subject": {
          "reference": "Patient/f9d2a645-e95c-40e4-bd00-f46f208f4f16"
        },
        "result": [
          {
            "reference": "Observation/b1127a40-3939-691b-d336-236f6546d029"
          }
        ],
        "meta": {
          "source": [
            "ecr"
          ]
        }
      },
      "request": {
        "method": "PUT",
        "url": "DiagnosticReport/f31be3d3-5f59-48e5-0d6f-9386a17a88b2"
      }
    },
    {
      "fullUrl": "urn:uuid:b1127a40-3939-691b-d336-236f6546d029",
      "resource": {
        "resourceType": "Observation",
        "id": "b1127a40-3939-691b-d336-236f6546d029",
        "meta": {
          "profile": [
            "http://hl7.org/fhir/us/core/StructureDefinition/us-core-observationresults"
          ],
          "source": [
            "ecr"
          ]
        },
        "identifier": [
          {
            "system": "urn:oid:2.16.840.1.113883",
            "value": "https://fhir-ehr.cerner.com/r4/da0b5d99-573c-4f5e-aaf6-8d39fa93d033/Observation/M-19284716756/_history/1"
          }
        ],
        "category": [
          {
            "coding": [
              {
                "system": "http://terminology.hl7.org/CodeSystem/observation-category",
                "code": "laboratory"
              }
            ]
          }
        ],
        "status": "final",
        "code": {
          "coding": [
            {
              "code": "704-7",
              "display": "Basophils [#/volume] in Blood by Automated count",
              "system": "http://loinc.org"
            }
          ]
        },
        "effectiveDateTime": "2022-04-15T17:03:00Z",
        "valueQuantity": {
          "value": 0.02,
          "unit": "x10e3/mcL"
        },
        "interpretation": [
          {
            "coding": [
              {
                "code": "N",
                "display": "Normal",
                "system": "http://terminology.hl7.org/CodeSystem/v3-ObservationInterpretation"
              }
            ]
          }
        ],
        "subject": {
          "reference": "Patient/f9d2a645-e95c-40e4-bd00-f46f208f4f16"
        }
      },
      "request": {
        "method": "PUT",
        "url": "Observation/b1127a40-3939-691b-d336-236f6546d029"
      }
    },
    {
      "fullUrl": "urn:uuid:87df5706-7697-9c91-81e2-6be211c0bed1",
      "resource": {
        "resourceType": "DiagnosticReport",
        "id": "87df5706-7697-9c91-81e2-6be211c0bed1",
        "identifier": [
          {
            "system": "urn:ietf:rfc:3986",
            "value": "urn:uuid:91b63ad1-62d9-495e-a525-84c1ff5d6e7c"
          }
        ],
        "status": "final",
        "code": {
          "coding": [
            {
              "code": "1751-7",
              "display": "Albumin [Mass/volume] in Serum or Plasma",
              "system": "http://loinc.org"
            }
          ]
        },
        "subject": {
          "reference": "Patient/f9d2a645-e95c-40e4-bd00-f46f208f4f16"
        },
        "result": [
          {
            "reference": "Observation/ec7b419f-634e-4271-dc91-ba2effb97b76"
          }
        ],
        "meta": {
          "source": [
            "ecr"
          ]
        }
      },
      "request": {
        "method": "PUT",
        "url": "DiagnosticReport/87df5706-7697-9c91-81e2-6be211c0bed1"
      }
    },
    {
      "fullUrl": "urn:uuid:ec7b419f-634e-4271-dc91-ba2effb97b76",
      "resource": {
        "resourceType": "Observation",
        "id": "ec7b419f-634e-4271-dc91-ba2effb97b76",
        "meta": {
          "profile": [
            "http://hl7.org/fhir/us/core/StructureDefinition/us-core-observationresults"
          ],
          "source": [
            "ecr"
          ]
        },
        "identifier": [
          {
            "system": "urn:oid:2.16.840.1.113883",
            "value": "https://fhir-ehr.cerner.com/r4/da0b5d99-573c-4f5e-aaf6-8d39fa93d033/Observation/M-19284816033/_history/1"
          }
        ],
        "category": [
          {
            "coding": [
              {
                "system": "http://terminology.hl7.org/CodeSystem/observation-category",
                "code": "laboratory"
              }
            ]
          }
        ],
        "status": "final",
        "code": {
          "coding": [
            {
              "code": "1751-7",
              "display": "Albumin [Mass/volume] in Serum or Plasma",
              "system": "http://loinc.org"
            }
          ]
        },
        "effectiveDateTime": "2022-04-15T17:03:00Z",
        "valueQuantity": {
          "value": 3.6,
          "unit": "gm/dL"
        },
        "interpretation": [
          {
            "coding": [
              {
                "code": "N",
                "display": "Normal",
                "system": "http://terminology.hl7.org/CodeSystem/v3-ObservationInterpretation"
              }
            ]
          }
        ],
        "subject": {
          "reference": "Patient/f9d2a645-e95c-40e4-bd00-f46f208f4f16"
        }
      },
      "request": {
        "method": "PUT",
        "url": "Observation/ec7b419f-634e-4271-dc91-ba2effb97b76"
      }
    },
    {
      "fullUrl": "urn:uuid:45672981-93a5-4924-6cbd-d623e1e68771",
      "resource": {
        "resourceType": "DiagnosticReport",
        "id": "45672981-93a5-4924-6cbd-d623e1e68771",
        "identifier": [
          {
            "system": "urn:ietf:rfc:3986",
            "value": "urn:uuid:1d152557-6081-46e9-a4b2-d6c39fdc5007"
          }
        ],
        "status": "final",
        "code": {
          "coding": [
            {
              "code": "742-7",
              "display": "Monocytes [#/volume] in Blood by Automated count",
              "system": "http://loinc.org"
            }
          ]
        },
        "subject": {
          "reference": "Patient/f9d2a645-e95c-40e4-bd00-f46f208f4f16"
        },
        "result": [
          {
            "reference": "Observation/f03f3593-6156-f89f-14bd-86a34685d4bc"
          }
        ],
        "meta": {
          "source": [
            "ecr"
          ]
        }
      },
      "request": {
        "method": "PUT",
        "url": "DiagnosticReport/45672981-93a5-4924-6cbd-d623e1e68771"
      }
    },
    {
      "fullUrl": "urn:uuid:f03f3593-6156-f89f-14bd-86a34685d4bc",
      "resource": {
        "resourceType": "Observation",
        "id": "f03f3593-6156-f89f-14bd-86a34685d4bc",
        "meta": {
          "profile": [
            "http://hl7.org/fhir/us/core/StructureDefinition/us-core-observationresults"
          ],
          "source": [
            "ecr"
          ]
        },
        "identifier": [
          {
            "system": "urn:oid:2.16.840.1.113883",
            "value": "https://fhir-ehr.cerner.com/r4/da0b5d99-573c-4f5e-aaf6-8d39fa93d033/Observation/M-19284716752/_history/1"
          }
        ],
        "category": [
          {
            "coding": [
              {
                "system": "http://terminology.hl7.org/CodeSystem/observation-category",
                "code": "laboratory"
              }
            ]
          }
        ],
        "status": "final",
        "code": {
          "coding": [
            {
              "code": "742-7",
              "display": "Monocytes [#/volume] in Blood by Automated count",
              "system": "http://loinc.org"
            }
          ]
        },
        "effectiveDateTime": "2022-04-15T17:03:00Z",
        "valueQuantity": {
          "value": 0.6,
          "unit": "x10e3/mcL"
        },
        "interpretation": [
          {
            "coding": [
              {
                "code": "N",
                "display": "Normal",
                "system": "http://terminology.hl7.org/CodeSystem/v3-ObservationInterpretation"
              }
            ]
          }
        ],
        "subject": {
          "reference": "Patient/f9d2a645-e95c-40e4-bd00-f46f208f4f16"
        }
      },
      "request": {
        "method": "PUT",
        "url": "Observation/f03f3593-6156-f89f-14bd-86a34685d4bc"
      }
    },
    {
      "fullUrl": "urn:uuid:bc79db0a-f6d7-b364-4958-f290f3293545",
      "resource": {
        "resourceType": "DiagnosticReport",
        "id": "bc79db0a-f6d7-b364-4958-f290f3293545",
        "identifier": [
          {
            "system": "urn:ietf:rfc:3986",
            "value": "urn:uuid:f174a350-9105-493e-af56-734e0bbdfac9"
          }
        ],
        "status": "final",
        "code": {
          "coding": [
            {
              "code": "751-8",
              "display": "Neutrophils [#/volume] in Blood by Automated count",
              "system": "http://loinc.org"
            }
          ]
        },
        "subject": {
          "reference": "Patient/f9d2a645-e95c-40e4-bd00-f46f208f4f16"
        },
        "result": [
          {
            "reference": "Observation/2dd4f4d5-0f5e-ebf1-3604-fec9d6bffbd0"
          }
        ],
        "meta": {
          "source": [
            "ecr"
          ]
        }
      },
      "request": {
        "method": "PUT",
        "url": "DiagnosticReport/bc79db0a-f6d7-b364-4958-f290f3293545"
      }
    },
    {
      "fullUrl": "urn:uuid:2dd4f4d5-0f5e-ebf1-3604-fec9d6bffbd0",
      "resource": {
        "resourceType": "Observation",
        "id": "2dd4f4d5-0f5e-ebf1-3604-fec9d6bffbd0",
        "meta": {
          "profile": [
            "http://hl7.org/fhir/us/core/StructureDefinition/us-core-observationresults"
          ],
          "source": [
            "ecr"
          ]
        },
        "identifier": [
          {
            "system": "urn:oid:2.16.840.1.113883",
            "value": "https://fhir-ehr.cerner.com/r4/da0b5d99-573c-4f5e-aaf6-8d39fa93d033/Observation/M-19284716748/_history/1"
          }
        ],
        "category": [
          {
            "coding": [
              {
                "system": "http://terminology.hl7.org/CodeSystem/observation-category",
                "code": "laboratory"
              }
            ]
          }
        ],
        "status": "final",
        "code": {
          "coding": [
            {
              "code": "751-8",
              "display": "Neutrophils [#/volume] in Blood by Automated count",
              "system": "http://loinc.org"
            }
          ]
        },
        "effectiveDateTime": "2022-04-15T17:03:00Z",
        "valueQuantity": {
          "value": 4.73,
          "unit": "x10e3/mcL"
        },
        "interpretation": [
          {
            "coding": [
              {
                "code": "N",
                "display": "Normal",
                "system": "http://terminology.hl7.org/CodeSystem/v3-ObservationInterpretation"
              }
            ]
          }
        ],
        "subject": {
          "reference": "Patient/f9d2a645-e95c-40e4-bd00-f46f208f4f16"
        }
      },
      "request": {
        "method": "PUT",
        "url": "Observation/2dd4f4d5-0f5e-ebf1-3604-fec9d6bffbd0"
      }
    },
    {
      "fullUrl": "urn:uuid:487d8b63-30ef-7352-222c-4430cabed559",
      "resource": {
        "resourceType": "DiagnosticReport",
        "id": "487d8b63-30ef-7352-222c-4430cabed559",
        "identifier": [
          {
            "system": "urn:ietf:rfc:3986",
            "value": "urn:uuid:9b34b380-3f6b-4a56-a427-976ff2368ae0"
          }
        ],
        "status": "final",
        "code": {
          "coding": [
            {
              "code": "706-2",
              "display": "Basophils/100 leukocytes in Blood by Automated count",
              "system": "http://loinc.org"
            }
          ]
        },
        "subject": {
          "reference": "Patient/f9d2a645-e95c-40e4-bd00-f46f208f4f16"
        },
        "result": [
          {
            "reference": "Observation/f2523ccf-f211-d164-ff88-33d8c6468983"
          }
        ],
        "meta": {
          "source": [
            "ecr"
          ]
        }
      },
      "request": {
        "method": "PUT",
        "url": "DiagnosticReport/487d8b63-30ef-7352-222c-4430cabed559"
      }
    },
    {
      "fullUrl": "urn:uuid:f2523ccf-f211-d164-ff88-33d8c6468983",
      "resource": {
        "resourceType": "Observation",
        "id": "f2523ccf-f211-d164-ff88-33d8c6468983",
        "meta": {
          "profile": [
            "http://hl7.org/fhir/us/core/StructureDefinition/us-core-observationresults"
          ],
          "source": [
            "ecr"
          ]
        },
        "identifier": [
          {
            "system": "urn:oid:2.16.840.1.113883",
            "value": "https://fhir-ehr.cerner.com/r4/da0b5d99-573c-4f5e-aaf6-8d39fa93d033/Observation/M-19284716746/_history/1"
          }
        ],
        "category": [
          {
            "coding": [
              {
                "system": "http://terminology.hl7.org/CodeSystem/observation-category",
                "code": "laboratory"
              }
            ]
          }
        ],
        "status": "final",
        "code": {
          "coding": [
            {
              "code": "706-2",
              "display": "Basophils/100 leukocytes in Blood by Automated count",
              "system": "http://loinc.org"
            }
          ]
        },
        "effectiveDateTime": "2022-04-15T17:03:00Z",
        "valueQuantity": {
          "value": 0.3,
          "unit": "%"
        },
        "subject": {
          "reference": "Patient/f9d2a645-e95c-40e4-bd00-f46f208f4f16"
        }
      },
      "request": {
        "method": "PUT",
        "url": "Observation/f2523ccf-f211-d164-ff88-33d8c6468983"
      }
    },
    {
      "fullUrl": "urn:uuid:0de05e72-3191-e4cf-1f03-22c3c246a813",
      "resource": {
        "resourceType": "DiagnosticReport",
        "id": "0de05e72-3191-e4cf-1f03-22c3c246a813",
        "identifier": [
          {
            "system": "urn:ietf:rfc:3986",
            "value": "urn:uuid:5baada00-232e-4386-829a-96cba2a8b858"
          }
        ],
        "status": "final",
        "code": {
          "coding": [
            {
              "code": "713-8",
              "display": "Eosinophils/100 leukocytes in Blood by Automated count",
              "system": "http://loinc.org"
            }
          ]
        },
        "subject": {
          "reference": "Patient/f9d2a645-e95c-40e4-bd00-f46f208f4f16"
        },
        "result": [
          {
            "reference": "Observation/1f283bd6-2d5c-1710-7d06-ec698c99493a"
          }
        ],
        "meta": {
          "source": [
            "ecr"
          ]
        }
      },
      "request": {
        "method": "PUT",
        "url": "DiagnosticReport/0de05e72-3191-e4cf-1f03-22c3c246a813"
      }
    },
    {
      "fullUrl": "urn:uuid:1f283bd6-2d5c-1710-7d06-ec698c99493a",
      "resource": {
        "resourceType": "Observation",
        "id": "1f283bd6-2d5c-1710-7d06-ec698c99493a",
        "meta": {
          "profile": [
            "http://hl7.org/fhir/us/core/StructureDefinition/us-core-observationresults"
          ],
          "source": [
            "ecr"
          ]
        },
        "identifier": [
          {
            "system": "urn:oid:2.16.840.1.113883",
            "value": "https://fhir-ehr.cerner.com/r4/da0b5d99-573c-4f5e-aaf6-8d39fa93d033/Observation/M-19284716744/_history/1"
          }
        ],
        "category": [
          {
            "coding": [
              {
                "system": "http://terminology.hl7.org/CodeSystem/observation-category",
                "code": "laboratory"
              }
            ]
          }
        ],
        "status": "final",
        "code": {
          "coding": [
            {
              "code": "713-8",
              "display": "Eosinophils/100 leukocytes in Blood by Automated count",
              "system": "http://loinc.org"
            }
          ]
        },
        "effectiveDateTime": "2022-04-15T17:03:00Z",
        "valueQuantity": {
          "value": 0.7,
          "unit": "%"
        },
        "subject": {
          "reference": "Patient/f9d2a645-e95c-40e4-bd00-f46f208f4f16"
        }
      },
      "request": {
        "method": "PUT",
        "url": "Observation/1f283bd6-2d5c-1710-7d06-ec698c99493a"
      }
    },
    {
      "fullUrl": "urn:uuid:4eefab6f-e13f-e49e-a4cd-1c2979d25531",
      "resource": {
        "resourceType": "DiagnosticReport",
        "id": "4eefab6f-e13f-e49e-a4cd-1c2979d25531",
        "identifier": [
          {
            "system": "urn:ietf:rfc:3986",
            "value": "urn:uuid:726c4c83-eb55-488c-b5ce-2169fb851264"
          }
        ],
        "status": "final",
        "code": {
          "coding": [
            {
              "code": "736-9",
              "display": "Lymphocytes/100 leukocytes in Blood by Automated count",
              "system": "http://loinc.org"
            }
          ]
        },
        "subject": {
          "reference": "Patient/f9d2a645-e95c-40e4-bd00-f46f208f4f16"
        },
        "result": [
          {
            "reference": "Observation/a9249110-9884-0b13-e66c-1c010f5e65fa"
          }
        ],
        "meta": {
          "source": [
            "ecr"
          ]
        }
      },
      "request": {
        "method": "PUT",
        "url": "DiagnosticReport/4eefab6f-e13f-e49e-a4cd-1c2979d25531"
      }
    },
    {
      "fullUrl": "urn:uuid:a9249110-9884-0b13-e66c-1c010f5e65fa",
      "resource": {
        "resourceType": "Observation",
        "id": "a9249110-9884-0b13-e66c-1c010f5e65fa",
        "meta": {
          "profile": [
            "http://hl7.org/fhir/us/core/StructureDefinition/us-core-observationresults"
          ],
          "source": [
            "ecr"
          ]
        },
        "identifier": [
          {
            "system": "urn:oid:2.16.840.1.113883",
            "value": "https://fhir-ehr.cerner.com/r4/da0b5d99-573c-4f5e-aaf6-8d39fa93d033/Observation/M-19284716740/_history/1"
          }
        ],
        "category": [
          {
            "coding": [
              {
                "system": "http://terminology.hl7.org/CodeSystem/observation-category",
                "code": "laboratory"
              }
            ]
          }
        ],
        "status": "final",
        "code": {
          "coding": [
            {
              "code": "736-9",
              "display": "Lymphocytes/100 leukocytes in Blood by Automated count",
              "system": "http://loinc.org"
            }
          ]
        },
        "effectiveDateTime": "2022-04-15T17:03:00Z",
        "valueQuantity": {
          "value": 21.3,
          "unit": "%"
        },
        "subject": {
          "reference": "Patient/f9d2a645-e95c-40e4-bd00-f46f208f4f16"
        }
      },
      "request": {
        "method": "PUT",
        "url": "Observation/a9249110-9884-0b13-e66c-1c010f5e65fa"
      }
    },
    {
      "fullUrl": "urn:uuid:a356b47d-9eb2-0088-f564-3a9458f89083",
      "resource": {
        "resourceType": "DiagnosticReport",
        "id": "a356b47d-9eb2-0088-f564-3a9458f89083",
        "identifier": [
          {
            "system": "urn:ietf:rfc:3986",
            "value": "urn:uuid:e9546246-d6f8-408e-a5c9-044f9026f0ce"
          }
        ],
        "status": "final",
        "code": {
          "coding": [
            {
              "code": "770-8",
              "display": "Neutrophils/100 leukocytes in Blood by Automated count",
              "system": "http://loinc.org"
            }
          ]
        },
        "subject": {
          "reference": "Patient/f9d2a645-e95c-40e4-bd00-f46f208f4f16"
        },
        "result": [
          {
            "reference": "Observation/131665fd-57c3-71bd-684e-923b6f757c06"
          }
        ],
        "meta": {
          "source": [
            "ecr"
          ]
        }
      },
      "request": {
        "method": "PUT",
        "url": "DiagnosticReport/a356b47d-9eb2-0088-f564-3a9458f89083"
      }
    },
    {
      "fullUrl": "urn:uuid:131665fd-57c3-71bd-684e-923b6f757c06",
      "resource": {
        "resourceType": "Observation",
        "id": "131665fd-57c3-71bd-684e-923b6f757c06",
        "meta": {
          "profile": [
            "http://hl7.org/fhir/us/core/StructureDefinition/us-core-observationresults"
          ],
          "source": [
            "ecr"
          ]
        },
        "identifier": [
          {
            "system": "urn:oid:2.16.840.1.113883",
            "value": "https://fhir-ehr.cerner.com/r4/da0b5d99-573c-4f5e-aaf6-8d39fa93d033/Observation/M-19284716736/_history/1"
          }
        ],
        "category": [
          {
            "coding": [
              {
                "system": "http://terminology.hl7.org/CodeSystem/observation-category",
                "code": "laboratory"
              }
            ]
          }
        ],
        "status": "final",
        "code": {
          "coding": [
            {
              "code": "770-8",
              "display": "Neutrophils/100 leukocytes in Blood by Automated count",
              "system": "http://loinc.org"
            }
          ]
        },
        "effectiveDateTime": "2022-04-15T17:03:00Z",
        "valueQuantity": {
          "value": 68.9,
          "unit": "%"
        },
        "subject": {
          "reference": "Patient/f9d2a645-e95c-40e4-bd00-f46f208f4f16"
        }
      },
      "request": {
        "method": "PUT",
        "url": "Observation/131665fd-57c3-71bd-684e-923b6f757c06"
      }
    },
    {
      "fullUrl": "urn:uuid:6327926f-a071-367a-e4c4-cdb29d6be61d",
      "resource": {
        "resourceType": "DiagnosticReport",
        "id": "6327926f-a071-367a-e4c4-cdb29d6be61d",
        "identifier": [
          {
            "system": "urn:ietf:rfc:3986",
            "value": "urn:uuid:5b52888a-5f6c-4f86-a29f-3ede31e93cfa"
          }
        ],
        "status": "final",
        "code": {
          "coding": [
            {
              "code": "17861-6",
              "display": "Calcium [Mass/volume] in Serum or Plasma",
              "system": "http://loinc.org"
            }
          ]
        },
        "subject": {
          "reference": "Patient/f9d2a645-e95c-40e4-bd00-f46f208f4f16"
        },
        "result": [
          {
            "reference": "Observation/396356a0-a50c-b781-9f28-f298804e4d92"
          }
        ],
        "meta": {
          "source": [
            "ecr"
          ]
        }
      },
      "request": {
        "method": "PUT",
        "url": "DiagnosticReport/6327926f-a071-367a-e4c4-cdb29d6be61d"
      }
    },
    {
      "fullUrl": "urn:uuid:396356a0-a50c-b781-9f28-f298804e4d92",
      "resource": {
        "resourceType": "Observation",
        "id": "396356a0-a50c-b781-9f28-f298804e4d92",
        "meta": {
          "profile": [
            "http://hl7.org/fhir/us/core/StructureDefinition/us-core-observationresults"
          ],
          "source": [
            "ecr"
          ]
        },
        "identifier": [
          {
            "system": "urn:oid:2.16.840.1.113883",
            "value": "https://fhir-ehr.cerner.com/r4/da0b5d99-573c-4f5e-aaf6-8d39fa93d033/Observation/M-19284816047/_history/1"
          }
        ],
        "category": [
          {
            "coding": [
              {
                "system": "http://terminology.hl7.org/CodeSystem/observation-category",
                "code": "laboratory"
              }
            ]
          }
        ],
        "status": "final",
        "code": {
          "coding": [
            {
              "code": "17861-6",
              "display": "Calcium [Mass/volume] in Serum or Plasma",
              "system": "http://loinc.org"
            }
          ]
        },
        "effectiveDateTime": "2022-04-15T17:03:00Z",
        "valueQuantity": {
          "value": 9.1,
          "unit": "mg/dL"
        },
        "interpretation": [
          {
            "coding": [
              {
                "code": "N",
                "display": "Normal",
                "system": "http://terminology.hl7.org/CodeSystem/v3-ObservationInterpretation"
              }
            ]
          }
        ],
        "subject": {
          "reference": "Patient/f9d2a645-e95c-40e4-bd00-f46f208f4f16"
        }
      },
      "request": {
        "method": "PUT",
        "url": "Observation/396356a0-a50c-b781-9f28-f298804e4d92"
      }
    },
    {
      "fullUrl": "urn:uuid:bc766f3b-6f94-da9d-e547-e721f6aaa660",
      "resource": {
        "resourceType": "DiagnosticReport",
        "id": "bc766f3b-6f94-da9d-e547-e721f6aaa660",
        "identifier": [
          {
            "system": "urn:ietf:rfc:3986",
            "value": "urn:uuid:01146c5f-8608-4478-b0aa-8c07b034811c"
          }
        ],
        "status": "final",
        "code": {
          "coding": [
            {
              "code": "21000-5",
              "display": "Erythrocyte distribution width [Entitic volume] by Automated count",
              "system": "http://loinc.org"
            }
          ]
        },
        "subject": {
          "reference": "Patient/f9d2a645-e95c-40e4-bd00-f46f208f4f16"
        },
        "result": [
          {
            "reference": "Observation/56129862-0f40-6d26-9b6a-b4ad52d28a19"
          }
        ],
        "meta": {
          "source": [
            "ecr"
          ]
        }
      },
      "request": {
        "method": "PUT",
        "url": "DiagnosticReport/bc766f3b-6f94-da9d-e547-e721f6aaa660"
      }
    },
    {
      "fullUrl": "urn:uuid:56129862-0f40-6d26-9b6a-b4ad52d28a19",
      "resource": {
        "resourceType": "Observation",
        "id": "56129862-0f40-6d26-9b6a-b4ad52d28a19",
        "meta": {
          "profile": [
            "http://hl7.org/fhir/us/core/StructureDefinition/us-core-observationresults"
          ],
          "source": [
            "ecr"
          ]
        },
        "identifier": [
          {
            "system": "urn:oid:2.16.840.1.113883",
            "value": "https://fhir-ehr.cerner.com/r4/da0b5d99-573c-4f5e-aaf6-8d39fa93d033/Observation/M-19284719610/_history/1"
          }
        ],
        "category": [
          {
            "coding": [
              {
                "system": "http://terminology.hl7.org/CodeSystem/observation-category",
                "code": "laboratory"
              }
            ]
          }
        ],
        "status": "final",
        "code": {
          "coding": [
            {
              "code": "21000-5",
              "display": "Erythrocyte distribution width [Entitic volume] by Automated count",
              "system": "http://loinc.org"
            }
          ]
        },
        "effectiveDateTime": "2022-04-15T17:03:00Z",
        "valueQuantity": {
          "value": 49.7,
          "unit": "Femtoliters"
        },
        "interpretation": [
          {
            "coding": [
              {
                "code": "H",
                "display": "High",
                "system": "http://terminology.hl7.org/CodeSystem/v3-ObservationInterpretation"
              }
            ]
          }
        ],
        "subject": {
          "reference": "Patient/f9d2a645-e95c-40e4-bd00-f46f208f4f16"
        }
      },
      "request": {
        "method": "PUT",
        "url": "Observation/56129862-0f40-6d26-9b6a-b4ad52d28a19"
      }
    },
    {
      "fullUrl": "urn:uuid:328f7949-4d72-5cba-a6be-fc0a96b8f008",
      "resource": {
        "resourceType": "DiagnosticReport",
        "id": "328f7949-4d72-5cba-a6be-fc0a96b8f008",
        "identifier": [
          {
            "system": "urn:ietf:rfc:3986",
            "value": "urn:uuid:8b8ad021-51b3-4382-98b7-8e14148132c5"
          }
        ],
        "status": "final",
        "code": {
          "coding": [
            {
              "code": "53115-2",
              "display": "Immature granulocytes [#/volume] in Blood by Automated count",
              "system": "http://loinc.org"
            }
          ]
        },
        "subject": {
          "reference": "Patient/f9d2a645-e95c-40e4-bd00-f46f208f4f16"
        },
        "result": [
          {
            "reference": "Observation/98f99e5f-cc42-1a10-9513-fa6de9461791"
          }
        ],
        "meta": {
          "source": [
            "ecr"
          ]
        }
      },
      "request": {
        "method": "PUT",
        "url": "DiagnosticReport/328f7949-4d72-5cba-a6be-fc0a96b8f008"
      }
    },
    {
      "fullUrl": "urn:uuid:98f99e5f-cc42-1a10-9513-fa6de9461791",
      "resource": {
        "resourceType": "Observation",
        "id": "98f99e5f-cc42-1a10-9513-fa6de9461791",
        "meta": {
          "profile": [
            "http://hl7.org/fhir/us/core/StructureDefinition/us-core-observationresults"
          ],
          "source": [
            "ecr"
          ]
        },
        "identifier": [
          {
            "system": "urn:oid:2.16.840.1.113883",
            "value": "https://fhir-ehr.cerner.com/r4/da0b5d99-573c-4f5e-aaf6-8d39fa93d033/Observation/M-19284716758/_history/1"
          }
        ],
        "category": [
          {
            "coding": [
              {
                "system": "http://terminology.hl7.org/CodeSystem/observation-category",
                "code": "laboratory"
              }
            ]
          }
        ],
        "status": "final",
        "code": {
          "coding": [
            {
              "code": "53115-2",
              "display": "Immature granulocytes [#/volume] in Blood by Automated count",
              "system": "http://loinc.org"
            }
          ]
        },
        "effectiveDateTime": "2022-04-15T17:03:00Z",
        "valueQuantity": {
          "value": 0.01,
          "unit": "x10e3/mcL"
        },
        "interpretation": [
          {
            "coding": [
              {
                "code": "N",
                "display": "Normal",
                "system": "http://terminology.hl7.org/CodeSystem/v3-ObservationInterpretation"
              }
            ]
          }
        ],
        "subject": {
          "reference": "Patient/f9d2a645-e95c-40e4-bd00-f46f208f4f16"
        }
      },
      "request": {
        "method": "PUT",
        "url": "Observation/98f99e5f-cc42-1a10-9513-fa6de9461791"
      }
    },
    {
      "fullUrl": "urn:uuid:c5747235-f881-4ad6-df8a-1fb3afd71867",
      "resource": {
        "resourceType": "DiagnosticReport",
        "id": "c5747235-f881-4ad6-df8a-1fb3afd71867",
        "identifier": [
          {
            "system": "urn:ietf:rfc:3986",
            "value": "urn:uuid:364765ee-eef7-4e22-b24e-8aa8cf14bdd5"
          }
        ],
        "status": "final",
        "code": {
          "coding": [
            {
              "code": "731-0",
              "display": "Lymphocytes [#/volume] in Blood by Automated count",
              "system": "http://loinc.org"
            }
          ]
        },
        "subject": {
          "reference": "Patient/f9d2a645-e95c-40e4-bd00-f46f208f4f16"
        },
        "result": [
          {
            "reference": "Observation/e9649c89-9768-2ccc-02a1-21c5ba61cf90"
          }
        ],
        "meta": {
          "source": [
            "ecr"
          ]
        }
      },
      "request": {
        "method": "PUT",
        "url": "DiagnosticReport/c5747235-f881-4ad6-df8a-1fb3afd71867"
      }
    },
    {
      "fullUrl": "urn:uuid:e9649c89-9768-2ccc-02a1-21c5ba61cf90",
      "resource": {
        "resourceType": "Observation",
        "id": "e9649c89-9768-2ccc-02a1-21c5ba61cf90",
        "meta": {
          "profile": [
            "http://hl7.org/fhir/us/core/StructureDefinition/us-core-observationresults"
          ],
          "source": [
            "ecr"
          ]
        },
        "identifier": [
          {
            "system": "urn:oid:2.16.840.1.113883",
            "value": "https://fhir-ehr.cerner.com/r4/da0b5d99-573c-4f5e-aaf6-8d39fa93d033/Observation/M-19284716750/_history/1"
          }
        ],
        "category": [
          {
            "coding": [
              {
                "system": "http://terminology.hl7.org/CodeSystem/observation-category",
                "code": "laboratory"
              }
            ]
          }
        ],
        "status": "final",
        "code": {
          "coding": [
            {
              "code": "731-0",
              "display": "Lymphocytes [#/volume] in Blood by Automated count",
              "system": "http://loinc.org"
            }
          ]
        },
        "effectiveDateTime": "2022-04-15T17:03:00Z",
        "valueQuantity": {
          "value": 1.46,
          "unit": "x10e3/mcL"
        },
        "interpretation": [
          {
            "coding": [
              {
                "code": "N",
                "display": "Normal",
                "system": "http://terminology.hl7.org/CodeSystem/v3-ObservationInterpretation"
              }
            ]
          }
        ],
        "subject": {
          "reference": "Patient/f9d2a645-e95c-40e4-bd00-f46f208f4f16"
        }
      },
      "request": {
        "method": "PUT",
        "url": "Observation/e9649c89-9768-2ccc-02a1-21c5ba61cf90"
      }
    },
    {
      "fullUrl": "urn:uuid:8144fb10-d199-01fb-4477-b20a24b37371",
      "resource": {
        "resourceType": "DiagnosticReport",
        "id": "8144fb10-d199-01fb-4477-b20a24b37371",
        "identifier": [
          {
            "system": "urn:ietf:rfc:3986",
            "value": "urn:uuid:9f236940-30f2-4494-918f-dcf3a4f43fcc"
          }
        ],
        "status": "final",
        "code": {
          "coding": [
            {
              "code": "5905-5",
              "display": "Monocytes/100 leukocytes in Blood by Automated count",
              "system": "http://loinc.org"
            }
          ]
        },
        "subject": {
          "reference": "Patient/f9d2a645-e95c-40e4-bd00-f46f208f4f16"
        },
        "result": [
          {
            "reference": "Observation/7a12de1d-a25c-57ec-2f76-9cc36e6cc6ab"
          }
        ],
        "meta": {
          "source": [
            "ecr"
          ]
        }
      },
      "request": {
        "method": "PUT",
        "url": "DiagnosticReport/8144fb10-d199-01fb-4477-b20a24b37371"
      }
    },
    {
      "fullUrl": "urn:uuid:7a12de1d-a25c-57ec-2f76-9cc36e6cc6ab",
      "resource": {
        "resourceType": "Observation",
        "id": "7a12de1d-a25c-57ec-2f76-9cc36e6cc6ab",
        "meta": {
          "profile": [
            "http://hl7.org/fhir/us/core/StructureDefinition/us-core-observationresults"
          ],
          "source": [
            "ecr"
          ]
        },
        "identifier": [
          {
            "system": "urn:oid:2.16.840.1.113883",
            "value": "https://fhir-ehr.cerner.com/r4/da0b5d99-573c-4f5e-aaf6-8d39fa93d033/Observation/M-19284716742/_history/1"
          }
        ],
        "category": [
          {
            "coding": [
              {
                "system": "http://terminology.hl7.org/CodeSystem/observation-category",
                "code": "laboratory"
              }
            ]
          }
        ],
        "status": "final",
        "code": {
          "coding": [
            {
              "code": "5905-5",
              "display": "Monocytes/100 leukocytes in Blood by Automated count",
              "system": "http://loinc.org"
            }
          ]
        },
        "effectiveDateTime": "2022-04-15T17:03:00Z",
        "valueQuantity": {
          "value": 8.7,
          "unit": "%"
        },
        "subject": {
          "reference": "Patient/f9d2a645-e95c-40e4-bd00-f46f208f4f16"
        }
      },
      "request": {
        "method": "PUT",
        "url": "Observation/7a12de1d-a25c-57ec-2f76-9cc36e6cc6ab"
      }
    },
    {
      "fullUrl": "urn:uuid:231dae0e-b544-0a44-23b2-04c6fb9624ab",
      "resource": {
        "resourceType": "DiagnosticReport",
        "id": "231dae0e-b544-0a44-23b2-04c6fb9624ab",
        "identifier": [
          {
            "system": "urn:ietf:rfc:3986",
            "value": "urn:uuid:e88cf977-c8c8-498e-b3b4-8cfa5ac0f9e3"
          }
        ],
        "status": "final",
        "code": {
          "coding": [
            {
              "code": "788-0",
              "display": "Erythrocyte distribution width [Ratio] by Automated count",
              "system": "http://loinc.org"
            }
          ]
        },
        "subject": {
          "reference": "Patient/f9d2a645-e95c-40e4-bd00-f46f208f4f16"
        },
        "result": [
          {
            "reference": "Observation/12e99bf8-7870-70c1-aeb2-3b6776d820c9"
          }
        ],
        "meta": {
          "source": [
            "ecr"
          ]
        }
      },
      "request": {
        "method": "PUT",
        "url": "DiagnosticReport/231dae0e-b544-0a44-23b2-04c6fb9624ab"
      }
    },
    {
      "fullUrl": "urn:uuid:12e99bf8-7870-70c1-aeb2-3b6776d820c9",
      "resource": {
        "resourceType": "Observation",
        "id": "12e99bf8-7870-70c1-aeb2-3b6776d820c9",
        "meta": {
          "profile": [
            "http://hl7.org/fhir/us/core/StructureDefinition/us-core-observationresults"
          ],
          "source": [
            "ecr"
          ]
        },
        "identifier": [
          {
            "system": "urn:oid:2.16.840.1.113883",
            "value": "https://fhir-ehr.cerner.com/r4/da0b5d99-573c-4f5e-aaf6-8d39fa93d033/Observation/M-19284719612/_history/1"
          }
        ],
        "category": [
          {
            "coding": [
              {
                "system": "http://terminology.hl7.org/CodeSystem/observation-category",
                "code": "laboratory"
              }
            ]
          }
        ],
        "status": "final",
        "code": {
          "coding": [
            {
              "code": "788-0",
              "display": "Erythrocyte distribution width [Ratio] by Automated count",
              "system": "http://loinc.org"
            }
          ]
        },
        "effectiveDateTime": "2022-04-15T17:03:00Z",
        "valueQuantity": {
          "value": 14.9,
          "unit": "%"
        },
        "interpretation": [
          {
            "coding": [
              {
                "code": "N",
                "display": "Normal",
                "system": "http://terminology.hl7.org/CodeSystem/v3-ObservationInterpretation"
              }
            ]
          }
        ],
        "subject": {
          "reference": "Patient/f9d2a645-e95c-40e4-bd00-f46f208f4f16"
        }
      },
      "request": {
        "method": "PUT",
        "url": "Observation/12e99bf8-7870-70c1-aeb2-3b6776d820c9"
      }
    },
    {
      "fullUrl": "urn:uuid:2e9f73af-c47f-2b7d-58cb-e2e551f03651",
      "resource": {
        "resourceType": "DiagnosticReport",
        "id": "2e9f73af-c47f-2b7d-58cb-e2e551f03651",
        "identifier": [
          {
            "system": "urn:ietf:rfc:3986",
            "value": "urn:uuid:718c849d-c61c-4daa-b060-dbf72838503f"
          }
        ],
        "status": "final",
        "code": {
          "coding": [
            {
              "code": "71695-1",
              "display": "Immature granulocytes/100 leukocytes in Blood by Automated count",
              "system": "http://loinc.org"
            }
          ]
        },
        "subject": {
          "reference": "Patient/f9d2a645-e95c-40e4-bd00-f46f208f4f16"
        },
        "result": [
          {
            "reference": "Observation/2ad0896c-fe55-1df4-7698-862223348f49"
          }
        ],
        "meta": {
          "source": [
            "ecr"
          ]
        }
      },
      "request": {
        "method": "PUT",
        "url": "DiagnosticReport/2e9f73af-c47f-2b7d-58cb-e2e551f03651"
      }
    },
    {
      "fullUrl": "urn:uuid:2ad0896c-fe55-1df4-7698-862223348f49",
      "resource": {
        "resourceType": "Observation",
        "id": "2ad0896c-fe55-1df4-7698-862223348f49",
        "meta": {
          "profile": [
            "http://hl7.org/fhir/us/core/StructureDefinition/us-core-observationresults"
          ],
          "source": [
            "ecr"
          ]
        },
        "identifier": [
          {
            "system": "urn:oid:2.16.840.1.113883",
            "value": "https://fhir-ehr.cerner.com/r4/da0b5d99-573c-4f5e-aaf6-8d39fa93d033/Observation/M-19284716760/_history/1"
          }
        ],
        "category": [
          {
            "coding": [
              {
                "system": "http://terminology.hl7.org/CodeSystem/observation-category",
                "code": "laboratory"
              }
            ]
          }
        ],
        "status": "final",
        "code": {
          "coding": [
            {
              "code": "71695-1",
              "display": "Immature granulocytes/100 leukocytes in Blood by Automated count",
              "system": "http://loinc.org"
            }
          ]
        },
        "effectiveDateTime": "2022-04-15T17:03:00Z",
        "valueQuantity": {
          "value": 0.1,
          "unit": "%"
        },
        "interpretation": [
          {
            "coding": [
              {
                "code": "N",
                "display": "Normal",
                "system": "http://terminology.hl7.org/CodeSystem/v3-ObservationInterpretation"
              }
            ]
          }
        ],
        "subject": {
          "reference": "Patient/f9d2a645-e95c-40e4-bd00-f46f208f4f16"
        }
      },
      "request": {
        "method": "PUT",
        "url": "Observation/2ad0896c-fe55-1df4-7698-862223348f49"
      }
    },
    {
      "fullUrl": "urn:uuid:deb1ad2b-007b-cb22-f51b-8db83d194775",
      "resource": {
        "resourceType": "DiagnosticReport",
        "id": "deb1ad2b-007b-cb22-f51b-8db83d194775",
        "identifier": [
          {
            "system": "urn:ietf:rfc:3986",
            "value": "urn:uuid:59a3666f-2edb-440a-8590-51de9752b553"
          }
        ],
        "status": "final",
        "code": {
          "coding": [
            {
              "code": "711-2",
              "display": "Eosinophils [#/volume] in Blood by Automated count",
              "system": "http://loinc.org"
            }
          ]
        },
        "subject": {
          "reference": "Patient/f9d2a645-e95c-40e4-bd00-f46f208f4f16"
        },
        "result": [
          {
            "reference": "Observation/68dd9edb-14d7-3cdd-e3df-a1084fd65e71"
          }
        ],
        "meta": {
          "source": [
            "ecr"
          ]
        }
      },
      "request": {
        "method": "PUT",
        "url": "DiagnosticReport/deb1ad2b-007b-cb22-f51b-8db83d194775"
      }
    },
    {
      "fullUrl": "urn:uuid:68dd9edb-14d7-3cdd-e3df-a1084fd65e71",
      "resource": {
        "resourceType": "Observation",
        "id": "68dd9edb-14d7-3cdd-e3df-a1084fd65e71",
        "meta": {
          "profile": [
            "http://hl7.org/fhir/us/core/StructureDefinition/us-core-observationresults"
          ],
          "source": [
            "ecr"
          ]
        },
        "identifier": [
          {
            "system": "urn:oid:2.16.840.1.113883",
            "value": "https://fhir-ehr.cerner.com/r4/da0b5d99-573c-4f5e-aaf6-8d39fa93d033/Observation/M-19284716754/_history/1"
          }
        ],
        "category": [
          {
            "coding": [
              {
                "system": "http://terminology.hl7.org/CodeSystem/observation-category",
                "code": "laboratory"
              }
            ]
          }
        ],
        "status": "final",
        "code": {
          "coding": [
            {
              "code": "711-2",
              "display": "Eosinophils [#/volume] in Blood by Automated count",
              "system": "http://loinc.org"
            }
          ]
        },
        "effectiveDateTime": "2022-04-15T17:03:00Z",
        "valueQuantity": {
          "value": 0.05,
          "unit": "x10e3/mcL"
        },
        "interpretation": [
          {
            "coding": [
              {
                "code": "N",
                "display": "Normal",
                "system": "http://terminology.hl7.org/CodeSystem/v3-ObservationInterpretation"
              }
            ]
          }
        ],
        "subject": {
          "reference": "Patient/f9d2a645-e95c-40e4-bd00-f46f208f4f16"
        }
      },
      "request": {
        "method": "PUT",
        "url": "Observation/68dd9edb-14d7-3cdd-e3df-a1084fd65e71"
      }
    },
    {
      "fullUrl": "urn:uuid:c2dee448-7103-1311-f9a0-f8a471836c2e",
      "resource": {
        "resourceType": "DiagnosticReport",
        "id": "c2dee448-7103-1311-f9a0-f8a471836c2e",
        "identifier": [
          {
            "system": "urn:ietf:rfc:3986",
            "value": "urn:uuid:ef25a78c-27e0-445b-aeba-5114ea4aea2a"
          }
        ],
        "status": "final",
        "code": {
          "coding": [
            {
              "code": "2075-0",
              "display": "Chloride [Moles/volume] in Serum or Plasma",
              "system": "http://loinc.org"
            }
          ]
        },
        "subject": {
          "reference": "Patient/f9d2a645-e95c-40e4-bd00-f46f208f4f16"
        },
        "result": [
          {
            "reference": "Observation/24c9897d-8045-2680-9a81-2bed3a0bf8c1"
          }
        ],
        "meta": {
          "source": [
            "ecr"
          ]
        }
      },
      "request": {
        "method": "PUT",
        "url": "DiagnosticReport/c2dee448-7103-1311-f9a0-f8a471836c2e"
      }
    },
    {
      "fullUrl": "urn:uuid:24c9897d-8045-2680-9a81-2bed3a0bf8c1",
      "resource": {
        "resourceType": "Observation",
        "id": "24c9897d-8045-2680-9a81-2bed3a0bf8c1",
        "meta": {
          "profile": [
            "http://hl7.org/fhir/us/core/StructureDefinition/us-core-observationresults"
          ],
          "source": [
            "ecr"
          ]
        },
        "identifier": [
          {
            "system": "urn:oid:2.16.840.1.113883",
            "value": "https://fhir-ehr.cerner.com/r4/da0b5d99-573c-4f5e-aaf6-8d39fa93d033/Observation/M-19284816015/_history/1"
          }
        ],
        "category": [
          {
            "coding": [
              {
                "system": "http://terminology.hl7.org/CodeSystem/observation-category",
                "code": "laboratory"
              }
            ]
          }
        ],
        "status": "final",
        "code": {
          "coding": [
            {
              "code": "2075-0",
              "display": "Chloride [Moles/volume] in Serum or Plasma",
              "system": "http://loinc.org"
            }
          ]
        },
        "effectiveDateTime": "2022-04-15T17:03:00Z",
        "valueQuantity": {
          "value": 101,
          "unit": "mmol/L"
        },
        "interpretation": [
          {
            "coding": [
              {
                "code": "N",
                "display": "Normal",
                "system": "http://terminology.hl7.org/CodeSystem/v3-ObservationInterpretation"
              }
            ]
          }
        ],
        "subject": {
          "reference": "Patient/f9d2a645-e95c-40e4-bd00-f46f208f4f16"
        }
      },
      "request": {
        "method": "PUT",
        "url": "Observation/24c9897d-8045-2680-9a81-2bed3a0bf8c1"
      }
    },
    {
      "fullUrl": "urn:uuid:b70f8bea-7c74-e296-071f-0e5135b00d71",
      "resource": {
        "resourceType": "DiagnosticReport",
        "id": "b70f8bea-7c74-e296-071f-0e5135b00d71",
        "identifier": [
          {
            "system": "urn:ietf:rfc:3986",
            "value": "urn:uuid:147266ed-24a4-49fd-aa23-92506e73a938"
          }
        ],
        "status": "final",
        "code": {
          "coding": [
            {
              "code": "3094-0",
              "display": "Urea nitrogen [Mass/volume] in Serum or Plasma",
              "system": "http://loinc.org"
            }
          ]
        },
        "subject": {
          "reference": "Patient/f9d2a645-e95c-40e4-bd00-f46f208f4f16"
        },
        "result": [
          {
            "reference": "Observation/1f783aae-998b-170b-0fe3-85c1fd49d571"
          }
        ],
        "meta": {
          "source": [
            "ecr"
          ]
        }
      },
      "request": {
        "method": "PUT",
        "url": "DiagnosticReport/b70f8bea-7c74-e296-071f-0e5135b00d71"
      }
    },
    {
      "fullUrl": "urn:uuid:1f783aae-998b-170b-0fe3-85c1fd49d571",
      "resource": {
        "resourceType": "Observation",
        "id": "1f783aae-998b-170b-0fe3-85c1fd49d571",
        "meta": {
          "profile": [
            "http://hl7.org/fhir/us/core/StructureDefinition/us-core-observationresults"
          ],
          "source": [
            "ecr"
          ]
        },
        "identifier": [
          {
            "system": "urn:oid:2.16.840.1.113883",
            "value": "https://fhir-ehr.cerner.com/r4/da0b5d99-573c-4f5e-aaf6-8d39fa93d033/Observation/M-19284816019/_history/1"
          }
        ],
        "category": [
          {
            "coding": [
              {
                "system": "http://terminology.hl7.org/CodeSystem/observation-category",
                "code": "laboratory"
              }
            ]
          }
        ],
        "status": "final",
        "code": {
          "coding": [
            {
              "code": "3094-0",
              "display": "Urea nitrogen [Mass/volume] in Serum or Plasma",
              "system": "http://loinc.org"
            }
          ]
        },
        "effectiveDateTime": "2022-04-15T17:03:00Z",
        "valueQuantity": {
          "value": 9,
          "unit": "mg/dL"
        },
        "interpretation": [
          {
            "coding": [
              {
                "code": "N",
                "display": "Normal",
                "system": "http://terminology.hl7.org/CodeSystem/v3-ObservationInterpretation"
              }
            ]
          }
        ],
        "subject": {
          "reference": "Patient/f9d2a645-e95c-40e4-bd00-f46f208f4f16"
        }
      },
      "request": {
        "method": "PUT",
        "url": "Observation/1f783aae-998b-170b-0fe3-85c1fd49d571"
      }
    },
    {
      "fullUrl": "urn:uuid:66557ddc-50ac-7494-eab8-a5cc65aaf1b6",
      "resource": {
        "resourceType": "DiagnosticReport",
        "id": "66557ddc-50ac-7494-eab8-a5cc65aaf1b6",
        "identifier": [
          {
            "system": "urn:ietf:rfc:3986",
            "value": "urn:uuid:e331426b-3e07-4c6d-8fd4-f558a341f5c8"
          }
        ],
        "status": "final",
        "code": {
          "coding": [
            {
              "code": "777-3",
              "display": "Platelets [#/volume] in Blood by Automated count",
              "system": "http://loinc.org"
            }
          ]
        },
        "subject": {
          "reference": "Patient/f9d2a645-e95c-40e4-bd00-f46f208f4f16"
        },
        "result": [
          {
            "reference": "Observation/dba50ebc-cd5f-f7d8-63a2-1f3dfadc9faa"
          }
        ],
        "meta": {
          "source": [
            "ecr"
          ]
        }
      },
      "request": {
        "method": "PUT",
        "url": "DiagnosticReport/66557ddc-50ac-7494-eab8-a5cc65aaf1b6"
      }
    },
    {
      "fullUrl": "urn:uuid:dba50ebc-cd5f-f7d8-63a2-1f3dfadc9faa",
      "resource": {
        "resourceType": "Observation",
        "id": "dba50ebc-cd5f-f7d8-63a2-1f3dfadc9faa",
        "meta": {
          "profile": [
            "http://hl7.org/fhir/us/core/StructureDefinition/us-core-observationresults"
          ],
          "source": [
            "ecr"
          ]
        },
        "identifier": [
          {
            "system": "urn:oid:2.16.840.1.113883",
            "value": "https://fhir-ehr.cerner.com/r4/da0b5d99-573c-4f5e-aaf6-8d39fa93d033/Observation/M-19284719606/_history/1"
          }
        ],
        "category": [
          {
            "coding": [
              {
                "system": "http://terminology.hl7.org/CodeSystem/observation-category",
                "code": "laboratory"
              }
            ]
          }
        ],
        "status": "final",
        "code": {
          "coding": [
            {
              "code": "777-3",
              "display": "Platelets [#/volume] in Blood by Automated count",
              "system": "http://loinc.org"
            }
          ]
        },
        "effectiveDateTime": "2022-04-15T17:03:00Z",
        "valueQuantity": {
          "value": 195,
          "unit": "x10e3/mcL"
        },
        "interpretation": [
          {
            "coding": [
              {
                "code": "N",
                "display": "Normal",
                "system": "http://terminology.hl7.org/CodeSystem/v3-ObservationInterpretation"
              }
            ]
          }
        ],
        "subject": {
          "reference": "Patient/f9d2a645-e95c-40e4-bd00-f46f208f4f16"
        }
      },
      "request": {
        "method": "PUT",
        "url": "Observation/dba50ebc-cd5f-f7d8-63a2-1f3dfadc9faa"
      }
    },
    {
      "fullUrl": "urn:uuid:1d3af867-307b-5c1e-7f39-493d896ca62a",
      "resource": {
        "resourceType": "DiagnosticReport",
        "id": "1d3af867-307b-5c1e-7f39-493d896ca62a",
        "identifier": [
          {
            "system": "urn:ietf:rfc:3986",
            "value": "urn:uuid:09870f87-37e5-4731-9de3-205b8e5677dd"
          }
        ],
        "status": "final",
        "code": {
          "coding": [
            {
              "code": "6690-2",
              "display": "Leukocytes [#/volume] in Blood by Automated count",
              "system": "http://loinc.org"
            }
          ]
        },
        "subject": {
          "reference": "Patient/f9d2a645-e95c-40e4-bd00-f46f208f4f16"
        },
        "result": [
          {
            "reference": "Observation/ee31ebe3-89af-f9c1-5c9d-77a3d1dae142"
          }
        ],
        "meta": {
          "source": [
            "ecr"
          ]
        }
      },
      "request": {
        "method": "PUT",
        "url": "DiagnosticReport/1d3af867-307b-5c1e-7f39-493d896ca62a"
      }
    },
    {
      "fullUrl": "urn:uuid:ee31ebe3-89af-f9c1-5c9d-77a3d1dae142",
      "resource": {
        "resourceType": "Observation",
        "id": "ee31ebe3-89af-f9c1-5c9d-77a3d1dae142",
        "meta": {
          "profile": [
            "http://hl7.org/fhir/us/core/StructureDefinition/us-core-observationresults"
          ],
          "source": [
            "ecr"
          ]
        },
        "identifier": [
          {
            "system": "urn:oid:2.16.840.1.113883",
            "value": "https://fhir-ehr.cerner.com/r4/da0b5d99-573c-4f5e-aaf6-8d39fa93d033/Observation/M-19284719588/_history/1"
          }
        ],
        "category": [
          {
            "coding": [
              {
                "system": "http://terminology.hl7.org/CodeSystem/observation-category",
                "code": "laboratory"
              }
            ]
          }
        ],
        "status": "final",
        "code": {
          "coding": [
            {
              "code": "6690-2",
              "display": "Leukocytes [#/volume] in Blood by Automated count",
              "system": "http://loinc.org"
            }
          ]
        },
        "effectiveDateTime": "2022-04-15T17:03:00Z",
        "valueQuantity": {
          "value": 6.87,
          "unit": "x10e3/mcL"
        },
        "interpretation": [
          {
            "coding": [
              {
                "code": "N",
                "display": "Normal",
                "system": "http://terminology.hl7.org/CodeSystem/v3-ObservationInterpretation"
              }
            ]
          }
        ],
        "subject": {
          "reference": "Patient/f9d2a645-e95c-40e4-bd00-f46f208f4f16"
        }
      },
      "request": {
        "method": "PUT",
        "url": "Observation/ee31ebe3-89af-f9c1-5c9d-77a3d1dae142"
      }
    },
    {
      "fullUrl": "urn:uuid:77ad2e3b-e750-f897-a4be-c792a58b75b8",
      "resource": {
        "resourceType": "DiagnosticReport",
        "id": "77ad2e3b-e750-f897-a4be-c792a58b75b8",
        "identifier": [
          {
            "system": "urn:ietf:rfc:3986",
            "value": "urn:uuid:7a7872ad-aca5-4859-903c-865aa8632abd"
          }
        ],
        "status": "final",
        "code": {
          "coding": [
            {
              "code": "2885-2",
              "display": "Protein [Mass/volume] in Serum or Plasma",
              "system": "http://loinc.org"
            }
          ]
        },
        "subject": {
          "reference": "Patient/f9d2a645-e95c-40e4-bd00-f46f208f4f16"
        },
        "result": [
          {
            "reference": "Observation/123b523e-91bd-4ac5-ea2b-fa30625adba8"
          }
        ],
        "meta": {
          "source": [
            "ecr"
          ]
        }
      },
      "request": {
        "method": "PUT",
        "url": "DiagnosticReport/77ad2e3b-e750-f897-a4be-c792a58b75b8"
      }
    },
    {
      "fullUrl": "urn:uuid:123b523e-91bd-4ac5-ea2b-fa30625adba8",
      "resource": {
        "resourceType": "Observation",
        "id": "123b523e-91bd-4ac5-ea2b-fa30625adba8",
        "meta": {
          "profile": [
            "http://hl7.org/fhir/us/core/StructureDefinition/us-core-observationresults"
          ],
          "source": [
            "ecr"
          ]
        },
        "identifier": [
          {
            "system": "urn:oid:2.16.840.1.113883",
            "value": "https://fhir-ehr.cerner.com/r4/da0b5d99-573c-4f5e-aaf6-8d39fa93d033/Observation/M-19284816051/_history/1"
          }
        ],
        "category": [
          {
            "coding": [
              {
                "system": "http://terminology.hl7.org/CodeSystem/observation-category",
                "code": "laboratory"
              }
            ]
          }
        ],
        "status": "final",
        "code": {
          "coding": [
            {
              "code": "2885-2",
              "display": "Protein [Mass/volume] in Serum or Plasma",
              "system": "http://loinc.org"
            }
          ]
        },
        "effectiveDateTime": "2022-04-15T17:03:00Z",
        "valueQuantity": {
          "value": 8.9,
          "unit": "gm/dL"
        },
        "interpretation": [
          {
            "coding": [
              {
                "code": "H",
                "display": "High",
                "system": "http://terminology.hl7.org/CodeSystem/v3-ObservationInterpretation"
              }
            ]
          }
        ],
        "subject": {
          "reference": "Patient/f9d2a645-e95c-40e4-bd00-f46f208f4f16"
        }
      },
      "request": {
        "method": "PUT",
        "url": "Observation/123b523e-91bd-4ac5-ea2b-fa30625adba8"
      }
    },
    {
      "fullUrl": "urn:uuid:f8636e52-d1dc-92c4-34d0-3b4c6bb8bcb2",
      "resource": {
        "resourceType": "DiagnosticReport",
        "id": "f8636e52-d1dc-92c4-34d0-3b4c6bb8bcb2",
        "identifier": [
          {
            "system": "urn:ietf:rfc:3986",
            "value": "urn:uuid:d31b2906-6509-419d-8b4c-d25ca76938f6"
          }
        ],
        "status": "final",
        "code": {
          "coding": [
            {
              "code": "789-8",
              "display": "Erythrocytes [#/volume] in Blood by Automated count",
              "system": "http://loinc.org"
            }
          ]
        },
        "subject": {
          "reference": "Patient/f9d2a645-e95c-40e4-bd00-f46f208f4f16"
        },
        "result": [
          {
            "reference": "Observation/8ac33820-131e-b29f-eea9-4dca7aca7bb1"
          }
        ],
        "meta": {
          "source": [
            "ecr"
          ]
        }
      },
      "request": {
        "method": "PUT",
        "url": "DiagnosticReport/f8636e52-d1dc-92c4-34d0-3b4c6bb8bcb2"
      }
    },
    {
      "fullUrl": "urn:uuid:8ac33820-131e-b29f-eea9-4dca7aca7bb1",
      "resource": {
        "resourceType": "Observation",
        "id": "8ac33820-131e-b29f-eea9-4dca7aca7bb1",
        "meta": {
          "profile": [
            "http://hl7.org/fhir/us/core/StructureDefinition/us-core-observationresults"
          ],
          "source": [
            "ecr"
          ]
        },
        "identifier": [
          {
            "system": "urn:oid:2.16.840.1.113883",
            "value": "https://fhir-ehr.cerner.com/r4/da0b5d99-573c-4f5e-aaf6-8d39fa93d033/Observation/M-19284719592/_history/1"
          }
        ],
        "category": [
          {
            "coding": [
              {
                "system": "http://terminology.hl7.org/CodeSystem/observation-category",
                "code": "laboratory"
              }
            ]
          }
        ],
        "status": "final",
        "code": {
          "coding": [
            {
              "code": "789-8",
              "display": "Erythrocytes [#/volume] in Blood by Automated count",
              "system": "http://loinc.org"
            }
          ]
        },
        "effectiveDateTime": "2022-04-15T17:03:00Z",
        "valueQuantity": {
          "value": 4.92,
          "unit": "x10e6/mcL"
        },
        "interpretation": [
          {
            "coding": [
              {
                "code": "N",
                "display": "Normal",
                "system": "http://terminology.hl7.org/CodeSystem/v3-ObservationInterpretation"
              }
            ]
          }
        ],
        "subject": {
          "reference": "Patient/f9d2a645-e95c-40e4-bd00-f46f208f4f16"
        }
      },
      "request": {
        "method": "PUT",
        "url": "Observation/8ac33820-131e-b29f-eea9-4dca7aca7bb1"
      }
    },
    {
      "fullUrl": "urn:uuid:670c42e8-c43e-7a72-e7f7-218f34b33371",
      "resource": {
        "resourceType": "DiagnosticReport",
        "id": "670c42e8-c43e-7a72-e7f7-218f34b33371",
        "identifier": [
          {
            "system": "urn:ietf:rfc:3986",
            "value": "urn:uuid:296292aa-2428-4c8b-9ed7-88ecc4e56614"
          }
        ],
        "status": "final",
        "code": {
          "coding": [
            {
              "code": "32623-1",
              "display": "Platelet mean volume [Entitic volume] in Blood by Automated count",
              "system": "http://loinc.org"
            }
          ]
        },
        "subject": {
          "reference": "Patient/f9d2a645-e95c-40e4-bd00-f46f208f4f16"
        },
        "result": [
          {
            "reference": "Observation/3e6d19ba-99ec-b040-a03a-ea96d6abcac1"
          }
        ],
        "meta": {
          "source": [
            "ecr"
          ]
        }
      },
      "request": {
        "method": "PUT",
        "url": "DiagnosticReport/670c42e8-c43e-7a72-e7f7-218f34b33371"
      }
    },
    {
      "fullUrl": "urn:uuid:3e6d19ba-99ec-b040-a03a-ea96d6abcac1",
      "resource": {
        "resourceType": "Observation",
        "id": "3e6d19ba-99ec-b040-a03a-ea96d6abcac1",
        "meta": {
          "profile": [
            "http://hl7.org/fhir/us/core/StructureDefinition/us-core-observationresults"
          ],
          "source": [
            "ecr"
          ]
        },
        "identifier": [
          {
            "system": "urn:oid:2.16.840.1.113883",
            "value": "https://fhir-ehr.cerner.com/r4/da0b5d99-573c-4f5e-aaf6-8d39fa93d033/Observation/M-19284719608/_history/1"
          }
        ],
        "category": [
          {
            "coding": [
              {
                "system": "http://terminology.hl7.org/CodeSystem/observation-category",
                "code": "laboratory"
              }
            ]
          }
        ],
        "status": "final",
        "code": {
          "coding": [
            {
              "code": "32623-1",
              "display": "Platelet mean volume [Entitic volume] in Blood by Automated count",
              "system": "http://loinc.org"
            }
          ]
        },
        "effectiveDateTime": "2022-04-15T17:03:00Z",
        "valueQuantity": {
          "value": 11.6,
          "unit": "Femtoliters"
        },
        "interpretation": [
          {
            "coding": [
              {
                "code": "N",
                "display": "Normal",
                "system": "http://terminology.hl7.org/CodeSystem/v3-ObservationInterpretation"
              }
            ]
          }
        ],
        "subject": {
          "reference": "Patient/f9d2a645-e95c-40e4-bd00-f46f208f4f16"
        }
      },
      "request": {
        "method": "PUT",
        "url": "Observation/3e6d19ba-99ec-b040-a03a-ea96d6abcac1"
      }
    },
    {
      "fullUrl": "urn:uuid:075ced4c-da30-b7e6-43f2-335972063441",
      "resource": {
        "resourceType": "DiagnosticReport",
        "id": "075ced4c-da30-b7e6-43f2-335972063441",
        "identifier": [
          {
            "system": "urn:ietf:rfc:3986",
            "value": "urn:uuid:fcb76bd4-8543-40dc-82db-3ed8eea027ce"
          }
        ],
        "status": "final",
        "code": {
          "coding": [
            {
              "code": "787-2",
              "display": "MCV [Entitic volume] by Automated count",
              "system": "http://loinc.org"
            }
          ]
        },
        "subject": {
          "reference": "Patient/f9d2a645-e95c-40e4-bd00-f46f208f4f16"
        },
        "result": [
          {
            "reference": "Observation/eeb82005-0020-b4c9-48db-8b2de294e54e"
          }
        ],
        "meta": {
          "source": [
            "ecr"
          ]
        }
      },
      "request": {
        "method": "PUT",
        "url": "DiagnosticReport/075ced4c-da30-b7e6-43f2-335972063441"
      }
    },
    {
      "fullUrl": "urn:uuid:eeb82005-0020-b4c9-48db-8b2de294e54e",
      "resource": {
        "resourceType": "Observation",
        "id": "eeb82005-0020-b4c9-48db-8b2de294e54e",
        "meta": {
          "profile": [
            "http://hl7.org/fhir/us/core/StructureDefinition/us-core-observationresults"
          ],
          "source": [
            "ecr"
          ]
        },
        "identifier": [
          {
            "system": "urn:oid:2.16.840.1.113883",
            "value": "https://fhir-ehr.cerner.com/r4/da0b5d99-573c-4f5e-aaf6-8d39fa93d033/Observation/M-19284719598/_history/1"
          }
        ],
        "category": [
          {
            "coding": [
              {
                "system": "http://terminology.hl7.org/CodeSystem/observation-category",
                "code": "laboratory"
              }
            ]
          }
        ],
        "status": "final",
        "code": {
          "coding": [
            {
              "code": "787-2",
              "display": "MCV [Entitic volume] by Automated count",
              "system": "http://loinc.org"
            }
          ]
        },
        "effectiveDateTime": "2022-04-15T17:03:00Z",
        "valueQuantity": {
          "value": 90.7,
          "unit": "Femtoliters"
        },
        "interpretation": [
          {
            "coding": [
              {
                "code": "N",
                "display": "Normal",
                "system": "http://terminology.hl7.org/CodeSystem/v3-ObservationInterpretation"
              }
            ]
          }
        ],
        "subject": {
          "reference": "Patient/f9d2a645-e95c-40e4-bd00-f46f208f4f16"
        }
      },
      "request": {
        "method": "PUT",
        "url": "Observation/eeb82005-0020-b4c9-48db-8b2de294e54e"
      }
    },
    {
      "fullUrl": "urn:uuid:a91606eb-5f75-8d62-8173-eb7bb3615395",
      "resource": {
        "resourceType": "DiagnosticReport",
        "id": "a91606eb-5f75-8d62-8173-eb7bb3615395",
        "identifier": [
          {
            "system": "urn:ietf:rfc:3986",
            "value": "urn:uuid:f58e4d56-0fb3-480d-b983-e449b62364ab"
          }
        ],
        "status": "final",
        "code": {
          "coding": [
            {
              "code": "786-4",
              "display": "MCHC [Mass/volume] by Automated count",
              "system": "http://loinc.org"
            }
          ]
        },
        "subject": {
          "reference": "Patient/f9d2a645-e95c-40e4-bd00-f46f208f4f16"
        },
        "result": [
          {
            "reference": "Observation/a5a632d6-4369-0a9a-8907-91c8b997e869"
          }
        ],
        "meta": {
          "source": [
            "ecr"
          ]
        }
      },
      "request": {
        "method": "PUT",
        "url": "DiagnosticReport/a91606eb-5f75-8d62-8173-eb7bb3615395"
      }
    },
    {
      "fullUrl": "urn:uuid:a5a632d6-4369-0a9a-8907-91c8b997e869",
      "resource": {
        "resourceType": "Observation",
        "id": "a5a632d6-4369-0a9a-8907-91c8b997e869",
        "meta": {
          "profile": [
            "http://hl7.org/fhir/us/core/StructureDefinition/us-core-observationresults"
          ],
          "source": [
            "ecr"
          ]
        },
        "identifier": [
          {
            "system": "urn:oid:2.16.840.1.113883",
            "value": "https://fhir-ehr.cerner.com/r4/da0b5d99-573c-4f5e-aaf6-8d39fa93d033/Observation/M-19284719602/_history/1"
          }
        ],
        "category": [
          {
            "coding": [
              {
                "system": "http://terminology.hl7.org/CodeSystem/observation-category",
                "code": "laboratory"
              }
            ]
          }
        ],
        "status": "final",
        "code": {
          "coding": [
            {
              "code": "786-4",
              "display": "MCHC [Mass/volume] by Automated count",
              "system": "http://loinc.org"
            }
          ]
        },
        "effectiveDateTime": "2022-04-15T17:03:00Z",
        "valueQuantity": {
          "value": 33.0,
          "unit": "gm/dL"
        },
        "interpretation": [
          {
            "coding": [
              {
                "code": "N",
                "display": "Normal",
                "system": "http://terminology.hl7.org/CodeSystem/v3-ObservationInterpretation"
              }
            ]
          }
        ],
        "subject": {
          "reference": "Patient/f9d2a645-e95c-40e4-bd00-f46f208f4f16"
        }
      },
      "request": {
        "method": "PUT",
        "url": "Observation/a5a632d6-4369-0a9a-8907-91c8b997e869"
      }
    },
    {
      "fullUrl": "urn:uuid:dc414d0c-03b4-c7a9-f19b-8fc01e3b4e59",
      "resource": {
        "resourceType": "DiagnosticReport",
        "id": "dc414d0c-03b4-c7a9-f19b-8fc01e3b4e59",
        "identifier": [
          {
            "system": "urn:ietf:rfc:3986",
            "value": "urn:uuid:f45616d9-07b9-4a78-86ad-0be13b3ccf9b"
          }
        ],
        "status": "final",
        "code": {
          "coding": [
            {
              "code": "785-6",
              "display": "MCH [Entitic mass] by Automated count",
              "system": "http://loinc.org"
            }
          ]
        },
        "subject": {
          "reference": "Patient/f9d2a645-e95c-40e4-bd00-f46f208f4f16"
        },
        "result": [
          {
            "reference": "Observation/2815bda1-1dc3-e1cc-1dd8-ebb9ee9b1717"
          }
        ],
        "meta": {
          "source": [
            "ecr"
          ]
        }
      },
      "request": {
        "method": "PUT",
        "url": "DiagnosticReport/dc414d0c-03b4-c7a9-f19b-8fc01e3b4e59"
      }
    },
    {
      "fullUrl": "urn:uuid:2815bda1-1dc3-e1cc-1dd8-ebb9ee9b1717",
      "resource": {
        "resourceType": "Observation",
        "id": "2815bda1-1dc3-e1cc-1dd8-ebb9ee9b1717",
        "meta": {
          "profile": [
            "http://hl7.org/fhir/us/core/StructureDefinition/us-core-observationresults"
          ],
          "source": [
            "ecr"
          ]
        },
        "identifier": [
          {
            "system": "urn:oid:2.16.840.1.113883",
            "value": "https://fhir-ehr.cerner.com/r4/da0b5d99-573c-4f5e-aaf6-8d39fa93d033/Observation/M-19284719600/_history/1"
          }
        ],
        "category": [
          {
            "coding": [
              {
                "system": "http://terminology.hl7.org/CodeSystem/observation-category",
                "code": "laboratory"
              }
            ]
          }
        ],
        "status": "final",
        "code": {
          "coding": [
            {
              "code": "785-6",
              "display": "MCH [Entitic mass] by Automated count",
              "system": "http://loinc.org"
            }
          ]
        },
        "effectiveDateTime": "2022-04-15T17:03:00Z",
        "valueQuantity": {
          "value": 29.9,
          "unit": "pg"
        },
        "interpretation": [
          {
            "coding": [
              {
                "code": "N",
                "display": "Normal",
                "system": "http://terminology.hl7.org/CodeSystem/v3-ObservationInterpretation"
              }
            ]
          }
        ],
        "subject": {
          "reference": "Patient/f9d2a645-e95c-40e4-bd00-f46f208f4f16"
        }
      },
      "request": {
        "method": "PUT",
        "url": "Observation/2815bda1-1dc3-e1cc-1dd8-ebb9ee9b1717"
      }
    },
    {
      "fullUrl": "urn:uuid:dde224f4-7ac3-6793-4ff2-9d38549d06d9",
      "resource": {
        "resourceType": "DiagnosticReport",
        "id": "dde224f4-7ac3-6793-4ff2-9d38549d06d9",
        "identifier": [
          {
            "system": "urn:ietf:rfc:3986",
            "value": "urn:uuid:58faaf53-a135-4e4c-8861-2948272f3b7e"
          }
        ],
        "status": "final",
        "code": {
          "coding": [
            {
              "code": "718-7",
              "display": "Hemoglobin [Mass/volume] in Blood",
              "system": "http://loinc.org"
            }
          ]
        },
        "subject": {
          "reference": "Patient/f9d2a645-e95c-40e4-bd00-f46f208f4f16"
        },
        "result": [
          {
            "reference": "Observation/d64acb60-f1d0-3fbd-2225-71c1eea6a741"
          }
        ],
        "meta": {
          "source": [
            "ecr"
          ]
        }
      },
      "request": {
        "method": "PUT",
        "url": "DiagnosticReport/dde224f4-7ac3-6793-4ff2-9d38549d06d9"
      }
    },
    {
      "fullUrl": "urn:uuid:d64acb60-f1d0-3fbd-2225-71c1eea6a741",
      "resource": {
        "resourceType": "Observation",
        "id": "d64acb60-f1d0-3fbd-2225-71c1eea6a741",
        "meta": {
          "profile": [
            "http://hl7.org/fhir/us/core/StructureDefinition/us-core-observationresults"
          ],
          "source": [
            "ecr"
          ]
        },
        "identifier": [
          {
            "system": "urn:oid:2.16.840.1.113883",
            "value": "https://fhir-ehr.cerner.com/r4/da0b5d99-573c-4f5e-aaf6-8d39fa93d033/Observation/M-19284719594/_history/1"
          }
        ],
        "category": [
          {
            "coding": [
              {
                "system": "http://terminology.hl7.org/CodeSystem/observation-category",
                "code": "laboratory"
              }
            ]
          }
        ],
        "status": "final",
        "code": {
          "coding": [
            {
              "code": "718-7",
              "display": "Hemoglobin [Mass/volume] in Blood",
              "system": "http://loinc.org"
            }
          ]
        },
        "effectiveDateTime": "2022-04-15T17:03:00Z",
        "valueQuantity": {
          "value": 14.7,
          "unit": "gm/dL"
        },
        "interpretation": [
          {
            "coding": [
              {
                "code": "N",
                "display": "Normal",
                "system": "http://terminology.hl7.org/CodeSystem/v3-ObservationInterpretation"
              }
            ]
          }
        ],
        "subject": {
          "reference": "Patient/f9d2a645-e95c-40e4-bd00-f46f208f4f16"
        }
      },
      "request": {
        "method": "PUT",
        "url": "Observation/d64acb60-f1d0-3fbd-2225-71c1eea6a741"
      }
    },
    {
      "fullUrl": "urn:uuid:2c311eff-5e95-d24f-a112-d01aafef0b17",
      "resource": {
        "resourceType": "DiagnosticReport",
        "id": "2c311eff-5e95-d24f-a112-d01aafef0b17",
        "identifier": [
          {
            "system": "urn:ietf:rfc:3986",
            "value": "urn:uuid:39091871-0e3f-44d6-9b19-6c37cb32c1e9"
          }
        ],
        "status": "final",
        "code": {
          "coding": [
            {
              "code": "4544-3",
              "display": "Hematocrit [Volume Fraction] of Blood by Automated count",
              "system": "http://loinc.org"
            }
          ]
        },
        "subject": {
          "reference": "Patient/f9d2a645-e95c-40e4-bd00-f46f208f4f16"
        },
        "result": [
          {
            "reference": "Observation/db9c6727-aa8d-bbfa-e559-e33ba98ede46"
          }
        ],
        "meta": {
          "source": [
            "ecr"
          ]
        }
      },
      "request": {
        "method": "PUT",
        "url": "DiagnosticReport/2c311eff-5e95-d24f-a112-d01aafef0b17"
      }
    },
    {
      "fullUrl": "urn:uuid:db9c6727-aa8d-bbfa-e559-e33ba98ede46",
      "resource": {
        "resourceType": "Observation",
        "id": "db9c6727-aa8d-bbfa-e559-e33ba98ede46",
        "meta": {
          "profile": [
            "http://hl7.org/fhir/us/core/StructureDefinition/us-core-observationresults"
          ],
          "source": [
            "ecr"
          ]
        },
        "identifier": [
          {
            "system": "urn:oid:2.16.840.1.113883",
            "value": "https://fhir-ehr.cerner.com/r4/da0b5d99-573c-4f5e-aaf6-8d39fa93d033/Observation/M-19284719596/_history/1"
          }
        ],
        "category": [
          {
            "coding": [
              {
                "system": "http://terminology.hl7.org/CodeSystem/observation-category",
                "code": "laboratory"
              }
            ]
          }
        ],
        "status": "final",
        "code": {
          "coding": [
            {
              "code": "4544-3",
              "display": "Hematocrit [Volume Fraction] of Blood by Automated count",
              "system": "http://loinc.org"
            }
          ]
        },
        "effectiveDateTime": "2022-04-15T17:03:00Z",
        "valueQuantity": {
          "value": 44.6,
          "unit": "%"
        },
        "interpretation": [
          {
            "coding": [
              {
                "code": "N",
                "display": "Normal",
                "system": "http://terminology.hl7.org/CodeSystem/v3-ObservationInterpretation"
              }
            ]
          }
        ],
        "subject": {
          "reference": "Patient/f9d2a645-e95c-40e4-bd00-f46f208f4f16"
        }
      },
      "request": {
        "method": "PUT",
        "url": "Observation/db9c6727-aa8d-bbfa-e559-e33ba98ede46"
      }
    },
    {
      "fullUrl": "urn:uuid:56f4c4d2-5581-b8f3-f0df-7c582fef43cf",
      "resource": {
        "resourceType": "DiagnosticReport",
        "id": "56f4c4d2-5581-b8f3-f0df-7c582fef43cf",
        "identifier": [
          {
            "system": "urn:ietf:rfc:3986",
            "value": "urn:uuid:337357ca-f335-4832-a257-80eddb26e990"
          }
        ],
        "status": "final",
        "code": {
          "coding": [
            {
              "code": "2345-7",
              "display": "Glucose [Mass/volume] in Serum or Plasma",
              "system": "http://loinc.org"
            }
          ]
        },
        "subject": {
          "reference": "Patient/f9d2a645-e95c-40e4-bd00-f46f208f4f16"
        },
        "result": [
          {
            "reference": "Observation/5e514b8a-4779-67dd-4d03-b94d7d711f9b"
          }
        ],
        "meta": {
          "source": [
            "ecr"
          ]
        }
      },
      "request": {
        "method": "PUT",
        "url": "DiagnosticReport/56f4c4d2-5581-b8f3-f0df-7c582fef43cf"
      }
    },
    {
      "fullUrl": "urn:uuid:5e514b8a-4779-67dd-4d03-b94d7d711f9b",
      "resource": {
        "resourceType": "Observation",
        "id": "5e514b8a-4779-67dd-4d03-b94d7d711f9b",
        "meta": {
          "profile": [
            "http://hl7.org/fhir/us/core/StructureDefinition/us-core-observationresults"
          ],
          "source": [
            "ecr"
          ]
        },
        "identifier": [
          {
            "system": "urn:oid:2.16.840.1.113883",
            "value": "https://fhir-ehr.cerner.com/r4/da0b5d99-573c-4f5e-aaf6-8d39fa93d033/Observation/M-19284816023/_history/1"
          }
        ],
        "category": [
          {
            "coding": [
              {
                "system": "http://terminology.hl7.org/CodeSystem/observation-category",
                "code": "laboratory"
              }
            ]
          }
        ],
        "status": "final",
        "code": {
          "coding": [
            {
              "code": "2345-7",
              "display": "Glucose [Mass/volume] in Serum or Plasma",
              "system": "http://loinc.org"
            }
          ]
        },
        "effectiveDateTime": "2022-04-15T17:03:00Z",
        "valueQuantity": {
          "value": 115,
          "unit": "mg/dL"
        },
        "interpretation": [
          {
            "coding": [
              {
                "code": "H",
                "display": "High",
                "system": "http://terminology.hl7.org/CodeSystem/v3-ObservationInterpretation"
              }
            ]
          }
        ],
        "subject": {
          "reference": "Patient/f9d2a645-e95c-40e4-bd00-f46f208f4f16"
        }
      },
      "request": {
        "method": "PUT",
        "url": "Observation/5e514b8a-4779-67dd-4d03-b94d7d711f9b"
      }
    },
    {
      "fullUrl": "urn:uuid:f7253700-55aa-4ca6-d474-c3bfe7938fe0",
      "resource": {
        "resourceType": "DiagnosticReport",
        "id": "f7253700-55aa-4ca6-d474-c3bfe7938fe0",
        "identifier": [
          {
            "system": "urn:ietf:rfc:3986",
            "value": "urn:uuid:c84a3500-fbeb-440d-8623-db566fd2ecdd"
          }
        ],
        "status": "final",
        "code": {
          "coding": [
            {
              "code": "48065-7",
              "display": "Fibrin D-dimer FEU [Mass/volume] in Platelet poor plasma",
              "system": "http://loinc.org"
            }
          ]
        },
        "subject": {
          "reference": "Patient/f9d2a645-e95c-40e4-bd00-f46f208f4f16"
        },
        "result": [
          {
            "reference": "Observation/e3325ed8-7e9b-6119-a3bd-0e210444b3ce"
          }
        ],
        "meta": {
          "source": [
            "ecr"
          ]
        }
      },
      "request": {
        "method": "PUT",
        "url": "DiagnosticReport/f7253700-55aa-4ca6-d474-c3bfe7938fe0"
      }
    },
    {
      "fullUrl": "urn:uuid:e3325ed8-7e9b-6119-a3bd-0e210444b3ce",
      "resource": {
        "resourceType": "Observation",
        "id": "e3325ed8-7e9b-6119-a3bd-0e210444b3ce",
        "meta": {
          "profile": [
            "http://hl7.org/fhir/us/core/StructureDefinition/us-core-observationresults"
          ],
          "source": [
            "ecr"
          ]
        },
        "identifier": [
          {
            "system": "urn:oid:2.16.840.1.113883",
            "value": "https://fhir-ehr.cerner.com/r4/da0b5d99-573c-4f5e-aaf6-8d39fa93d033/Observation/M-19284775083/_history/1"
          }
        ],
        "category": [
          {
            "coding": [
              {
                "system": "http://terminology.hl7.org/CodeSystem/observation-category",
                "code": "laboratory"
              }
            ]
          }
        ],
        "status": "final",
        "code": {
          "coding": [
            {
              "code": "48065-7",
              "display": "Fibrin D-dimer FEU [Mass/volume] in Platelet poor plasma",
              "system": "http://loinc.org"
            }
          ]
        },
        "effectiveDateTime": "2022-04-15T17:03:00Z",
        "valueQuantity": {
          "value": 0.34,
          "unit": "mcg/mL FEU"
        },
        "interpretation": [
          {
            "coding": [
              {
                "code": "N",
                "display": "Normal",
                "system": "http://terminology.hl7.org/CodeSystem/v3-ObservationInterpretation"
              }
            ]
          }
        ],
        "subject": {
          "reference": "Patient/f9d2a645-e95c-40e4-bd00-f46f208f4f16"
        }
      },
      "request": {
        "method": "PUT",
        "url": "Observation/e3325ed8-7e9b-6119-a3bd-0e210444b3ce"
      }
    },
    {
      "fullUrl": "urn:uuid:7191e3b3-6e93-d58f-7f12-8947a5ca51ae",
      "resource": {
        "resourceType": "DiagnosticReport",
        "id": "7191e3b3-6e93-d58f-7f12-8947a5ca51ae",
        "identifier": [
          {
            "system": "urn:ietf:rfc:3986",
            "value": "urn:uuid:39b8f29d-7cd8-48af-97c3-7eb095b91b2b"
          }
        ],
        "status": "final",
        "code": {
          "coding": [
            {
              "code": "2028-9",
              "display": "Carbon dioxide, total [Moles/volume] in Serum or Plasma",
              "system": "http://loinc.org"
            }
          ]
        },
        "subject": {
          "reference": "Patient/f9d2a645-e95c-40e4-bd00-f46f208f4f16"
        },
        "result": [
          {
            "reference": "Observation/1f829d47-da43-84cd-31cf-86d37c899e95"
          }
        ],
        "meta": {
          "source": [
            "ecr"
          ]
        }
      },
      "request": {
        "method": "PUT",
        "url": "DiagnosticReport/7191e3b3-6e93-d58f-7f12-8947a5ca51ae"
      }
    },
    {
      "fullUrl": "urn:uuid:1f829d47-da43-84cd-31cf-86d37c899e95",
      "resource": {
        "resourceType": "Observation",
        "id": "1f829d47-da43-84cd-31cf-86d37c899e95",
        "meta": {
          "profile": [
            "http://hl7.org/fhir/us/core/StructureDefinition/us-core-observationresults"
          ],
          "source": [
            "ecr"
          ]
        },
        "identifier": [
          {
            "system": "urn:oid:2.16.840.1.113883",
            "value": "https://fhir-ehr.cerner.com/r4/da0b5d99-573c-4f5e-aaf6-8d39fa93d033/Observation/M-19284816017/_history/1"
          }
        ],
        "category": [
          {
            "coding": [
              {
                "system": "http://terminology.hl7.org/CodeSystem/observation-category",
                "code": "laboratory"
              }
            ]
          }
        ],
        "status": "final",
        "code": {
          "coding": [
            {
              "code": "2028-9",
              "display": "Carbon dioxide, total [Moles/volume] in Serum or Plasma",
              "system": "http://loinc.org"
            }
          ]
        },
        "effectiveDateTime": "2022-04-15T17:03:00Z",
        "valueQuantity": {
          "value": 28,
          "unit": "mmol/L"
        },
        "interpretation": [
          {
            "coding": [
              {
                "code": "N",
                "display": "Normal",
                "system": "http://terminology.hl7.org/CodeSystem/v3-ObservationInterpretation"
              }
            ]
          }
        ],
        "subject": {
          "reference": "Patient/f9d2a645-e95c-40e4-bd00-f46f208f4f16"
        }
      },
      "request": {
        "method": "PUT",
        "url": "Observation/1f829d47-da43-84cd-31cf-86d37c899e95"
      }
    },
    {
      "fullUrl": "urn:uuid:fb2d9fc2-2281-7d85-3e2b-d0e65dd7eeac",
      "resource": {
        "resourceType": "DiagnosticReport",
        "id": "fb2d9fc2-2281-7d85-3e2b-d0e65dd7eeac",
        "identifier": [
          {
            "system": "urn:ietf:rfc:3986",
            "value": "urn:uuid:63c00a5a-fad2-4eec-a000-4af796bc3f66"
          }
        ],
        "status": "final",
        "code": {
          "coding": [
            {
              "code": "1975-2",
              "display": "Bilirubin.total [Mass/volume] in Serum or Plasma",
              "system": "http://loinc.org"
            }
          ]
        },
        "subject": {
          "reference": "Patient/f9d2a645-e95c-40e4-bd00-f46f208f4f16"
        },
        "result": [
          {
            "reference": "Observation/2bfdc249-8248-7487-6dc7-d712929fa0bc"
          }
        ],
        "meta": {
          "source": [
            "ecr"
          ]
        }
      },
      "request": {
        "method": "PUT",
        "url": "DiagnosticReport/fb2d9fc2-2281-7d85-3e2b-d0e65dd7eeac"
      }
    },
    {
      "fullUrl": "urn:uuid:2bfdc249-8248-7487-6dc7-d712929fa0bc",
      "resource": {
        "resourceType": "Observation",
        "id": "2bfdc249-8248-7487-6dc7-d712929fa0bc",
        "meta": {
          "profile": [
            "http://hl7.org/fhir/us/core/StructureDefinition/us-core-observationresults"
          ],
          "source": [
            "ecr"
          ]
        },
        "identifier": [
          {
            "system": "urn:oid:2.16.840.1.113883",
            "value": "https://fhir-ehr.cerner.com/r4/da0b5d99-573c-4f5e-aaf6-8d39fa93d033/Observation/M-19284816039/_history/1"
          }
        ],
        "category": [
          {
            "coding": [
              {
                "system": "http://terminology.hl7.org/CodeSystem/observation-category",
                "code": "laboratory"
              }
            ]
          }
        ],
        "status": "final",
        "code": {
          "coding": [
            {
              "code": "1975-2",
              "display": "Bilirubin.total [Mass/volume] in Serum or Plasma",
              "system": "http://loinc.org"
            }
          ]
        },
        "effectiveDateTime": "2022-04-15T17:03:00Z",
        "valueQuantity": {
          "value": 0.8,
          "unit": "mg/dL"
        },
        "interpretation": [
          {
            "coding": [
              {
                "code": "N",
                "display": "Normal",
                "system": "http://terminology.hl7.org/CodeSystem/v3-ObservationInterpretation"
              }
            ]
          }
        ],
        "subject": {
          "reference": "Patient/f9d2a645-e95c-40e4-bd00-f46f208f4f16"
        }
      },
      "request": {
        "method": "PUT",
        "url": "Observation/2bfdc249-8248-7487-6dc7-d712929fa0bc"
      }
    },
    {
      "fullUrl": "urn:uuid:473805e0-4507-046d-64f6-ea8988e7611a",
      "resource": {
        "resourceType": "DiagnosticReport",
        "id": "473805e0-4507-046d-64f6-ea8988e7611a",
        "identifier": [
          {
            "system": "urn:ietf:rfc:3986",
            "value": "urn:uuid:57c456dd-147b-436a-a31f-06265842e0ab"
          }
        ],
        "status": "final",
        "code": {
          "coding": [
            {
              "code": "1920-8",
              "display": "Aspartate aminotransferase [Enzymatic activity/volume] in Serum or Plasma",
              "system": "http://loinc.org"
            }
          ]
        },
        "subject": {
          "reference": "Patient/f9d2a645-e95c-40e4-bd00-f46f208f4f16"
        },
        "result": [
          {
            "reference": "Observation/d01b3806-be84-5331-b6e8-30b4d70d584e"
          }
        ],
        "meta": {
          "source": [
            "ecr"
          ]
        }
      },
      "request": {
        "method": "PUT",
        "url": "DiagnosticReport/473805e0-4507-046d-64f6-ea8988e7611a"
      }
    },
    {
      "fullUrl": "urn:uuid:d01b3806-be84-5331-b6e8-30b4d70d584e",
      "resource": {
        "resourceType": "Observation",
        "id": "d01b3806-be84-5331-b6e8-30b4d70d584e",
        "meta": {
          "profile": [
            "http://hl7.org/fhir/us/core/StructureDefinition/us-core-observationresults"
          ],
          "source": [
            "ecr"
          ]
        },
        "identifier": [
          {
            "system": "urn:oid:2.16.840.1.113883",
            "value": "https://fhir-ehr.cerner.com/r4/da0b5d99-573c-4f5e-aaf6-8d39fa93d033/Observation/M-19284816027/_history/1"
          }
        ],
        "category": [
          {
            "coding": [
              {
                "system": "http://terminology.hl7.org/CodeSystem/observation-category",
                "code": "laboratory"
              }
            ]
          }
        ],
        "status": "final",
        "code": {
          "coding": [
            {
              "code": "1920-8",
              "display": "Aspartate aminotransferase [Enzymatic activity/volume] in Serum or Plasma",
              "system": "http://loinc.org"
            }
          ]
        },
        "effectiveDateTime": "2022-04-15T17:03:00Z",
        "valueQuantity": {
          "value": 25,
          "unit": "units/L"
        },
        "interpretation": [
          {
            "coding": [
              {
                "code": "N",
                "display": "Normal",
                "system": "http://terminology.hl7.org/CodeSystem/v3-ObservationInterpretation"
              }
            ]
          }
        ],
        "subject": {
          "reference": "Patient/f9d2a645-e95c-40e4-bd00-f46f208f4f16"
        }
      },
      "request": {
        "method": "PUT",
        "url": "Observation/d01b3806-be84-5331-b6e8-30b4d70d584e"
      }
    },
    {
      "fullUrl": "urn:uuid:c8d5d592-5f8b-1f61-8f67-d60f299dcd1d",
      "resource": {
        "resourceType": "DiagnosticReport",
        "id": "c8d5d592-5f8b-1f61-8f67-d60f299dcd1d",
        "identifier": [
          {
            "system": "urn:ietf:rfc:3986",
            "value": "urn:uuid:261a54fc-3b4b-4b20-b1a0-7bc5a3420137"
          }
        ],
        "status": "final",
        "code": {
          "coding": [
            {
              "code": "1742-6",
              "display": "Alanine aminotransferase [Enzymatic activity/volume] in Serum or Plasma",
              "system": "http://loinc.org"
            }
          ]
        },
        "subject": {
          "reference": "Patient/f9d2a645-e95c-40e4-bd00-f46f208f4f16"
        },
        "result": [
          {
            "reference": "Observation/4522f2ed-ad93-341b-b5ff-ada74da2ab25"
          }
        ],
        "meta": {
          "source": [
            "ecr"
          ]
        }
      },
      "request": {
        "method": "PUT",
        "url": "DiagnosticReport/c8d5d592-5f8b-1f61-8f67-d60f299dcd1d"
      }
    },
    {
      "fullUrl": "urn:uuid:4522f2ed-ad93-341b-b5ff-ada74da2ab25",
      "resource": {
        "resourceType": "Observation",
        "id": "4522f2ed-ad93-341b-b5ff-ada74da2ab25",
        "meta": {
          "profile": [
            "http://hl7.org/fhir/us/core/StructureDefinition/us-core-observationresults"
          ],
          "source": [
            "ecr"
          ]
        },
        "identifier": [
          {
            "system": "urn:oid:2.16.840.1.113883",
            "value": "https://fhir-ehr.cerner.com/r4/da0b5d99-573c-4f5e-aaf6-8d39fa93d033/Observation/M-19284816025/_history/1"
          }
        ],
        "category": [
          {
            "coding": [
              {
                "system": "http://terminology.hl7.org/CodeSystem/observation-category",
                "code": "laboratory"
              }
            ]
          }
        ],
        "status": "final",
        "code": {
          "coding": [
            {
              "code": "1742-6",
              "display": "Alanine aminotransferase [Enzymatic activity/volume] in Serum or Plasma",
              "system": "http://loinc.org"
            }
          ]
        },
        "effectiveDateTime": "2022-04-15T17:03:00Z",
        "valueQuantity": {
          "value": 19,
          "unit": "units/L"
        },
        "interpretation": [
          {
            "coding": [
              {
                "code": "N",
                "display": "Normal",
                "system": "http://terminology.hl7.org/CodeSystem/v3-ObservationInterpretation"
              }
            ]
          }
        ],
        "subject": {
          "reference": "Patient/f9d2a645-e95c-40e4-bd00-f46f208f4f16"
        }
      },
      "request": {
        "method": "PUT",
        "url": "Observation/4522f2ed-ad93-341b-b5ff-ada74da2ab25"
      }
    },
    {
      "fullUrl": "urn:uuid:e41e6dca-4acf-7171-ea7c-713411fc3e73",
      "resource": {
        "resourceType": "DiagnosticReport",
        "id": "e41e6dca-4acf-7171-ea7c-713411fc3e73",
        "identifier": [
          {
            "system": "urn:ietf:rfc:3986",
            "value": "urn:uuid:a1ae3fa5-1aa2-4304-aa03-00cbd5abc3a8"
          }
        ],
        "status": "final",
        "code": {
          "coding": [
            {
              "code": "6768-6",
              "display": "Alkaline phosphatase [Enzymatic activity/volume] in Serum or Plasma",
              "system": "http://loinc.org"
            }
          ]
        },
        "subject": {
          "reference": "Patient/f9d2a645-e95c-40e4-bd00-f46f208f4f16"
        },
        "result": [
          {
            "reference": "Observation/8a3e4fe5-a269-3cb1-49ff-4ef054b8fa30"
          }
        ],
        "meta": {
          "source": [
            "ecr"
          ]
        }
      },
      "request": {
        "method": "PUT",
        "url": "DiagnosticReport/e41e6dca-4acf-7171-ea7c-713411fc3e73"
      }
    },
    {
      "fullUrl": "urn:uuid:8a3e4fe5-a269-3cb1-49ff-4ef054b8fa30",
      "resource": {
        "resourceType": "Observation",
        "id": "8a3e4fe5-a269-3cb1-49ff-4ef054b8fa30",
        "meta": {
          "profile": [
            "http://hl7.org/fhir/us/core/StructureDefinition/us-core-observationresults"
          ],
          "source": [
            "ecr"
          ]
        },
        "identifier": [
          {
            "system": "urn:oid:2.16.840.1.113883",
            "value": "https://fhir-ehr.cerner.com/r4/da0b5d99-573c-4f5e-aaf6-8d39fa93d033/Observation/M-19284816035/_history/1"
          }
        ],
        "category": [
          {
            "coding": [
              {
                "system": "http://terminology.hl7.org/CodeSystem/observation-category",
                "code": "laboratory"
              }
            ]
          }
        ],
        "status": "final",
        "code": {
          "coding": [
            {
              "code": "6768-6",
              "display": "Alkaline phosphatase [Enzymatic activity/volume] in Serum or Plasma",
              "system": "http://loinc.org"
            }
          ]
        },
        "effectiveDateTime": "2022-04-15T17:03:00Z",
        "valueQuantity": {
          "value": 67,
          "unit": "units/L"
        },
        "interpretation": [
          {
            "coding": [
              {
                "code": "N",
                "display": "Normal",
                "system": "http://terminology.hl7.org/CodeSystem/v3-ObservationInterpretation"
              }
            ]
          }
        ],
        "subject": {
          "reference": "Patient/f9d2a645-e95c-40e4-bd00-f46f208f4f16"
        }
      },
      "request": {
        "method": "PUT",
        "url": "Observation/8a3e4fe5-a269-3cb1-49ff-4ef054b8fa30"
      }
    },
    {
      "fullUrl": "urn:uuid:91e1c417-fcf0-2cdd-2cac-41f95d2480b4",
      "resource": {
        "resourceType": "DiagnosticReport",
        "id": "91e1c417-fcf0-2cdd-2cac-41f95d2480b4",
        "identifier": [
          {
            "system": "urn:ietf:rfc:3986",
            "value": "urn:uuid:a14e9225-ca2c-4b41-960f-24c0f1f1f03e"
          }
        ],
        "status": "final",
        "code": {
          "coding": [
            {
              "code": "3097-3",
              "display": "Urea nitrogen/Creatinine [Mass Ratio] in Serum or Plasma",
              "system": "http://loinc.org"
            }
          ]
        },
        "subject": {
          "reference": "Patient/f9d2a645-e95c-40e4-bd00-f46f208f4f16"
        },
        "result": [
          {
            "reference": "Observation/54f875a6-2f8a-b093-d4c2-afa62467df93"
          }
        ],
        "meta": {
          "source": [
            "ecr"
          ]
        }
      },
      "request": {
        "method": "PUT",
        "url": "DiagnosticReport/91e1c417-fcf0-2cdd-2cac-41f95d2480b4"
      }
    },
    {
      "fullUrl": "urn:uuid:54f875a6-2f8a-b093-d4c2-afa62467df93",
      "resource": {
        "resourceType": "Observation",
        "id": "54f875a6-2f8a-b093-d4c2-afa62467df93",
        "meta": {
          "profile": [
            "http://hl7.org/fhir/us/core/StructureDefinition/us-core-observationresults"
          ],
          "source": [
            "ecr"
          ]
        },
        "identifier": [
          {
            "system": "urn:oid:2.16.840.1.113883",
            "value": "https://fhir-ehr.cerner.com/r4/da0b5d99-573c-4f5e-aaf6-8d39fa93d033/Observation/M-19284816049/_history/1"
          }
        ],
        "category": [
          {
            "coding": [
              {
                "system": "http://terminology.hl7.org/CodeSystem/observation-category",
                "code": "laboratory"
              }
            ]
          }
        ],
        "status": "final",
        "code": {
          "coding": [
            {
              "code": "3097-3",
              "display": "Urea nitrogen/Creatinine [Mass Ratio] in Serum or Plasma",
              "system": "http://loinc.org"
            }
          ]
        },
        "effectiveDateTime": "2022-04-15T17:03:00Z",
        "valueQuantity": {
          "value": 10
        },
        "interpretation": [
          {
            "coding": [
              {
                "code": "N",
                "display": "Normal",
                "system": "http://terminology.hl7.org/CodeSystem/v3-ObservationInterpretation"
              }
            ]
          }
        ],
        "subject": {
          "reference": "Patient/f9d2a645-e95c-40e4-bd00-f46f208f4f16"
        }
      },
      "request": {
        "method": "PUT",
        "url": "Observation/54f875a6-2f8a-b093-d4c2-afa62467df93"
      }
    },
    {
      "fullUrl": "urn:uuid:0091d93d-8214-34a5-a4e7-58c951409d7c",
      "resource": {
        "resourceType": "DiagnosticReport",
        "id": "0091d93d-8214-34a5-a4e7-58c951409d7c",
        "identifier": [
          {
            "system": "urn:ietf:rfc:3986",
            "value": "urn:uuid:7de52dcf-a364-4662-b2e4-8a8b5e3bcb48"
          }
        ],
        "status": "final",
        "code": {
          "coding": [
            {
              "code": "1863-0",
              "display": "Anion gap 4 in Serum or Plasma",
              "system": "http://loinc.org"
            }
          ]
        },
        "subject": {
          "reference": "Patient/f9d2a645-e95c-40e4-bd00-f46f208f4f16"
        },
        "result": [
          {
            "reference": "Observation/0d5219a6-ab87-16b9-ba0f-79240342f308"
          }
        ],
        "meta": {
          "source": [
            "ecr"
          ]
        }
      },
      "request": {
        "method": "PUT",
        "url": "DiagnosticReport/0091d93d-8214-34a5-a4e7-58c951409d7c"
      }
    },
    {
      "fullUrl": "urn:uuid:0d5219a6-ab87-16b9-ba0f-79240342f308",
      "resource": {
        "resourceType": "Observation",
        "id": "0d5219a6-ab87-16b9-ba0f-79240342f308",
        "meta": {
          "profile": [
            "http://hl7.org/fhir/us/core/StructureDefinition/us-core-observationresults"
          ],
          "source": [
            "ecr"
          ]
        },
        "identifier": [
          {
            "system": "urn:oid:2.16.840.1.113883",
            "value": "https://fhir-ehr.cerner.com/r4/da0b5d99-573c-4f5e-aaf6-8d39fa93d033/Observation/M-19284816043/_history/1"
          }
        ],
        "category": [
          {
            "coding": [
              {
                "system": "http://terminology.hl7.org/CodeSystem/observation-category",
                "code": "laboratory"
              }
            ]
          }
        ],
        "status": "final",
        "code": {
          "coding": [
            {
              "code": "1863-0",
              "display": "Anion gap 4 in Serum or Plasma",
              "system": "http://loinc.org"
            }
          ]
        },
        "effectiveDateTime": "2022-04-15T17:03:00Z",
        "valueQuantity": {
          "value": 6,
          "unit": "mmol/L"
        },
        "interpretation": [
          {
            "coding": [
              {
                "code": "N",
                "display": "Normal",
                "system": "http://terminology.hl7.org/CodeSystem/v3-ObservationInterpretation"
              }
            ]
          }
        ],
        "subject": {
          "reference": "Patient/f9d2a645-e95c-40e4-bd00-f46f208f4f16"
        }
      },
      "request": {
        "method": "PUT",
        "url": "Observation/0d5219a6-ab87-16b9-ba0f-79240342f308"
      }
    },
    {
      "fullUrl": "urn:uuid:f74404ca-83d4-845a-65a9-a031730c2052",
      "resource": {
        "resourceType": "DiagnosticReport",
        "id": "f74404ca-83d4-845a-65a9-a031730c2052",
        "identifier": [
          {
            "system": "urn:ietf:rfc:3986",
            "value": "urn:uuid:0f86d34d-7572-40a4-9927-2f39ded0881a"
          }
        ],
        "status": "final",
        "code": {
          "coding": [
            {
              "code": "2160-0",
              "display": "Creatinine [Mass/volume] in Serum or Plasma",
              "system": "http://loinc.org"
            }
          ]
        },
        "subject": {
          "reference": "Patient/f9d2a645-e95c-40e4-bd00-f46f208f4f16"
        },
        "result": [
          {
            "reference": "Observation/d62fc0a5-46a4-7dbe-dadf-4adba4d008b8"
          }
        ],
        "meta": {
          "source": [
            "ecr"
          ]
        }
      },
      "request": {
        "method": "PUT",
        "url": "DiagnosticReport/f74404ca-83d4-845a-65a9-a031730c2052"
      }
    },
    {
      "fullUrl": "urn:uuid:d62fc0a5-46a4-7dbe-dadf-4adba4d008b8",
      "resource": {
        "resourceType": "Observation",
        "id": "d62fc0a5-46a4-7dbe-dadf-4adba4d008b8",
        "meta": {
          "profile": [
            "http://hl7.org/fhir/us/core/StructureDefinition/us-core-observationresults"
          ],
          "source": [
            "ecr"
          ]
        },
        "identifier": [
          {
            "system": "urn:oid:2.16.840.1.113883",
            "value": "https://fhir-ehr.cerner.com/r4/da0b5d99-573c-4f5e-aaf6-8d39fa93d033/Observation/M-19284816021/_history/1"
          }
        ],
        "category": [
          {
            "coding": [
              {
                "system": "http://terminology.hl7.org/CodeSystem/observation-category",
                "code": "laboratory"
              }
            ]
          }
        ],
        "status": "final",
        "code": {
          "coding": [
            {
              "code": "2160-0",
              "display": "Creatinine [Mass/volume] in Serum or Plasma",
              "system": "http://loinc.org"
            }
          ]
        },
        "effectiveDateTime": "2022-04-15T17:03:00Z",
        "valueQuantity": {
          "value": 0.856,
          "unit": "mg/dL"
        },
        "interpretation": [
          {
            "coding": [
              {
                "code": "N",
                "display": "Normal",
                "system": "http://terminology.hl7.org/CodeSystem/v3-ObservationInterpretation"
              }
            ]
          }
        ],
        "subject": {
          "reference": "Patient/f9d2a645-e95c-40e4-bd00-f46f208f4f16"
        }
      },
      "request": {
        "method": "PUT",
        "url": "Observation/d62fc0a5-46a4-7dbe-dadf-4adba4d008b8"
      }
    },
    {
      "fullUrl": "urn:uuid:9389af18-d1a2-58ab-ee16-0681acd78c6f",
      "resource": {
        "resourceType": "Observation",
        "id": "9389af18-d1a2-58ab-ee16-0681acd78c6f",
        "meta": {
          "profile": [
            "http://hl7.org/fhir/us/ecr/StructureDefinition/us-ph-travel-history"
          ],
          "source": [
            "ecr"
          ]
        },
        "code": {
          "coding": [
            {
              "system": "http://snomed.info/sct",
              "code": "420008001",
              "display": "Travel"
            }
          ],
          "text": "Travel History"
        },
        "status": "final",
        "component": [
          {
            "code": {
              "coding": [
                {
                  "system": "http://terminology.hl7.org/CodeSystem/v3-ParticipationType",
                  "code": "LOC",
                  "display": "Location"
                }
              ]
            }
          }
        ],
        "effectiveDateTime": "2022-04-15T16:43:43Z"
      },
      "request": {
        "method": "PUT",
        "url": "Observation/9389af18-d1a2-58ab-ee16-0681acd78c6f"
      }
    },
    {
      "fullUrl": "urn:uuid:51746276-2451-9932-9e58-4f21971c62ac",
      "resource": {
        "resourceType": "Observation",
        "id": "51746276-2451-9932-9e58-4f21971c62ac",
        "meta": {
          "profile": [
            "http://hl7.org/fhir/us/ecr/StructureDefinition/us-ph-travel-history"
          ],
          "source": [
            "ecr"
          ]
        },
        "code": {
          "coding": [
            {
              "system": "http://snomed.info/sct",
              "code": "420008001",
              "display": "Travel"
            }
          ],
          "text": "Travel History"
        },
        "status": "final",
        "component": [
          {
            "code": {
              "coding": [
                {
                  "system": "http://terminology.hl7.org/CodeSystem/v3-ParticipationType",
                  "code": "LOC",
                  "display": "Location"
                }
              ]
            }
          }
        ],
        "effectiveDateTime": "2022-04-15T16:43:40Z"
      },
      "request": {
        "method": "PUT",
        "url": "Observation/51746276-2451-9932-9e58-4f21971c62ac"
      }
    },
    {
      "fullUrl": "urn:uuid:e3794f31-0b96-7d3f-69d5-7b944494e540",
      "resource": {
        "resourceType": "Observation",
        "id": "e3794f31-0b96-7d3f-69d5-7b944494e540",
        "meta": {
          "profile": [
            "http://hl7.org/fhir/us/ecr/StructureDefinition/us-ph-travel-history"
          ],
          "source": [
            "ecr"
          ]
        },
        "code": {
          "coding": [
            {
              "system": "http://snomed.info/sct",
              "code": "420008001",
              "display": "Travel"
            }
          ],
          "text": "Travel History"
        },
        "status": "final",
        "component": [
          {
            "code": {
              "coding": [
                {
                  "system": "http://terminology.hl7.org/CodeSystem/v3-ParticipationType",
                  "code": "LOC",
                  "display": "Location"
                }
              ]
            }
          }
        ],
        "effectiveDateTime": "2022-04-15T16:18:00Z"
      },
      "request": {
        "method": "PUT",
        "url": "Observation/e3794f31-0b96-7d3f-69d5-7b944494e540"
      }
    },
    {
      "fullUrl": "urn:uuid:f21fadab-af58-b443-50c0-2201075d0c25",
      "resource": {
        "resourceType": "Observation",
        "id": "f21fadab-af58-b443-50c0-2201075d0c25",
        "meta": {
          "profile": [
            "http://hl7.org/fhir/us/ecr/StructureDefinition/us-ph-travel-history"
          ],
          "source": [
            "ecr"
          ]
        },
        "code": {
          "coding": [
            {
              "system": "http://snomed.info/sct",
              "code": "420008001",
              "display": "Travel"
            }
          ],
          "text": "Travel History"
        },
        "status": "final",
        "component": [
          {
            "code": {
              "coding": [
                {
                  "system": "http://terminology.hl7.org/CodeSystem/v3-ParticipationType",
                  "code": "LOC",
                  "display": "Location"
                }
              ]
            }
          }
        ],
        "effectiveDateTime": "2022-04-15T16:18:00Z"
      },
      "request": {
        "method": "PUT",
        "url": "Observation/f21fadab-af58-b443-50c0-2201075d0c25"
      }
    },
    {
      "fullUrl": "urn:uuid:88ab5385-5cb5-0308-a58e-bc67b2f3b725",
      "resource": {
        "resourceType": "Observation",
        "id": "88ab5385-5cb5-0308-a58e-bc67b2f3b725",
        "meta": {
          "profile": [
            "http://hl7.org/fhir/us/ecr/StructureDefinition/us-ph-travel-history"
          ],
          "source": [
            "ecr"
          ]
        },
        "code": {
          "coding": [
            {
              "system": "http://snomed.info/sct",
              "code": "420008001",
              "display": "Travel"
            }
          ],
          "text": "Travel History"
        },
        "status": "final",
        "component": [
          {
            "code": {
              "coding": [
                {
                  "system": "http://terminology.hl7.org/CodeSystem/v3-ParticipationType",
                  "code": "LOC",
                  "display": "Location"
                }
              ]
            }
          }
        ],
        "effectiveDateTime": "2022-04-15T16:18:00Z"
      },
      "request": {
        "method": "PUT",
        "url": "Observation/88ab5385-5cb5-0308-a58e-bc67b2f3b725"
      }
    },
    {
      "fullUrl": "urn:uuid:dbe310c6-9580-0fe6-11c8-4b8caa33a9fb",
      "resource": {
        "resourceType": "Observation",
        "id": "dbe310c6-9580-0fe6-11c8-4b8caa33a9fb",
        "meta": {
          "profile": [
            "http://hl7.org/fhir/us/ecr/StructureDefinition/us-ph-travel-history"
          ],
          "source": [
            "ecr"
          ]
        },
        "code": {
          "coding": [
            {
              "system": "http://snomed.info/sct",
              "code": "420008001",
              "display": "Travel"
            }
          ],
          "text": "Travel History"
        },
        "status": "final",
        "component": [
          {
            "code": {
              "coding": [
                {
                  "system": "http://terminology.hl7.org/CodeSystem/v3-ParticipationType",
                  "code": "LOC",
                  "display": "Location"
                }
              ]
            }
          }
        ],
        "effectiveDateTime": "2022-04-15T16:18:00Z"
      },
      "request": {
        "method": "PUT",
        "url": "Observation/dbe310c6-9580-0fe6-11c8-4b8caa33a9fb"
      }
    },
    {
      "fullUrl": "urn:uuid:f4ed88e3-7742-2dea-1a58-8505caead382",
      "resource": {
        "resourceType": "Observation",
        "id": "f4ed88e3-7742-2dea-1a58-8505caead382",
        "meta": {
          "profile": [
            "http://hl7.org/fhir/us/ecr/StructureDefinition/us-ph-travel-history"
          ],
          "source": [
            "ecr"
          ]
        },
        "code": {
          "coding": [
            {
              "system": "http://snomed.info/sct",
              "code": "420008001",
              "display": "Travel"
            }
          ],
          "text": "Travel History"
        },
        "status": "final",
        "component": [
          {
            "code": {
              "coding": [
                {
                  "system": "http://terminology.hl7.org/CodeSystem/v3-ParticipationType",
                  "code": "LOC",
                  "display": "Location"
                }
              ]
            }
          }
        ],
        "effectiveDateTime": "2022-04-15T16:18:00Z"
      },
      "request": {
        "method": "PUT",
        "url": "Observation/f4ed88e3-7742-2dea-1a58-8505caead382"
      }
    },
    {
      "fullUrl": "urn:uuid:68f1da74-94b9-7976-76f3-b5354cc0f35f",
      "resource": {
        "resourceType": "Observation",
        "id": "68f1da74-94b9-7976-76f3-b5354cc0f35f",
        "meta": {
          "profile": [
            "http://hl7.org/fhir/us/ecr/StructureDefinition/us-ph-travel-history"
          ],
          "source": [
            "ecr"
          ]
        },
        "code": {
          "coding": [
            {
              "system": "http://snomed.info/sct",
              "code": "420008001",
              "display": "Travel"
            }
          ],
          "text": "Travel History"
        },
        "status": "final",
        "component": [
          {
            "code": {
              "coding": [
                {
                  "system": "http://terminology.hl7.org/CodeSystem/v3-ParticipationType",
                  "code": "LOC",
                  "display": "Location"
                }
              ]
            }
          }
        ],
        "effectiveDateTime": "2022-04-15T16:18:00Z"
      },
      "request": {
        "method": "PUT",
        "url": "Observation/68f1da74-94b9-7976-76f3-b5354cc0f35f"
      }
    },
    {
      "fullUrl": "urn:uuid:994278a6-ca17-8619-c789-19b8b6bf6f9c",
      "resource": {
        "resourceType": "Observation",
        "id": "994278a6-ca17-8619-c789-19b8b6bf6f9c",
        "meta": {
          "profile": [
            "http://hl7.org/fhir/us/ecr/StructureDefinition/us-ph-travel-history"
          ],
          "source": [
            "ecr"
          ]
        },
        "code": {
          "coding": [
            {
              "system": "http://snomed.info/sct",
              "code": "420008001",
              "display": "Travel"
            }
          ],
          "text": "Travel History"
        },
        "status": "final",
        "component": [
          {
            "code": {
              "coding": [
                {
                  "system": "http://terminology.hl7.org/CodeSystem/v3-ParticipationType",
                  "code": "LOC",
                  "display": "Location"
                }
              ]
            }
          }
        ],
        "effectiveDateTime": "2022-04-15T16:18:00Z"
      },
      "request": {
        "method": "PUT",
        "url": "Observation/994278a6-ca17-8619-c789-19b8b6bf6f9c"
      }
    },
    {
      "fullUrl": "urn:uuid:1e6de63d-ea70-84d6-52d2-46429d031b57",
      "resource": {
        "resourceType": "Observation",
        "id": "1e6de63d-ea70-84d6-52d2-46429d031b57",
        "meta": {
          "profile": [
            "http://hl7.org/fhir/us/ecr/StructureDefinition/us-ph-travel-history"
          ],
          "source": [
            "ecr"
          ]
        },
        "code": {
          "coding": [
            {
              "system": "http://snomed.info/sct",
              "code": "420008001",
              "display": "Travel"
            }
          ],
          "text": "Travel History"
        },
        "status": "final",
        "component": [
          {
            "code": {
              "coding": [
                {
                  "system": "http://terminology.hl7.org/CodeSystem/v3-ParticipationType",
                  "code": "LOC",
                  "display": "Location"
                }
              ]
            }
          }
        ],
        "effectiveDateTime": "2022-04-15T16:18:00Z"
      },
      "request": {
        "method": "PUT",
        "url": "Observation/1e6de63d-ea70-84d6-52d2-46429d031b57"
      }
    },
    {
      "fullUrl": "urn:uuid:3ca15288-a6ed-8ad3-77c9-eee0ba9275be",
      "resource": {
        "resourceType": "Observation",
        "id": "3ca15288-a6ed-8ad3-77c9-eee0ba9275be",
        "meta": {
          "profile": [
            "http://hl7.org/fhir/us/ecr/StructureDefinition/us-ph-travel-history"
          ],
          "source": [
            "ecr"
          ]
        },
        "code": {
          "coding": [
            {
              "system": "http://snomed.info/sct",
              "code": "420008001",
              "display": "Travel"
            }
          ],
          "text": "Travel History"
        },
        "status": "final",
        "component": [
          {
            "code": {
              "coding": [
                {
                  "system": "http://terminology.hl7.org/CodeSystem/v3-ParticipationType",
                  "code": "LOC",
                  "display": "Location"
                }
              ]
            }
          }
        ],
        "effectiveDateTime": "2022-04-15T16:18:00Z"
      },
      "request": {
        "method": "PUT",
        "url": "Observation/3ca15288-a6ed-8ad3-77c9-eee0ba9275be"
      }
    },
    {
      "fullUrl": "urn:uuid:eedc882c-0f16-276c-3bd8-b677a1a6c600",
      "resource": {
        "resourceType": "Observation",
        "id": "eedc882c-0f16-276c-3bd8-b677a1a6c600",
        "meta": {
          "profile": [
            "http://hl7.org/fhir/us/ecr/StructureDefinition/us-ph-travel-history"
          ],
          "source": [
            "ecr"
          ]
        },
        "code": {
          "coding": [
            {
              "system": "http://snomed.info/sct",
              "code": "420008001",
              "display": "Travel"
            }
          ],
          "text": "Travel History"
        },
        "status": "final",
        "component": [
          {
            "code": {
              "coding": [
                {
                  "system": "http://terminology.hl7.org/CodeSystem/v3-ParticipationType",
                  "code": "LOC",
                  "display": "Location"
                }
              ]
            }
          }
        ],
        "effectiveDateTime": "2022-04-15T16:18:00Z"
      },
      "request": {
        "method": "PUT",
        "url": "Observation/eedc882c-0f16-276c-3bd8-b677a1a6c600"
      }
    },
    {
      "fullUrl": "urn:uuid:",
      "resource": {
        "resourceType": "Observation",
        "meta": {
          "profile": [
            "http://hl7.org/fhir/us/core/StructureDefinition/us-core-observationresults"
          ],
          "source": [
            "ecr"
          ]
        }
      },
      "request": {
        "method": "PUT",
        "url": "Observation/"
      }
    }
  ]
}
