{
  "resourceType": "Bundle",
  "type": "batch",
  "entry": [
    {
      "fullUrl": "urn:uuid:1.22.333.4444.5555",
      "resource": {
        "resourceType": "Composition",
        "id": "1.22.333.4444.5555",
        "meta": {
          "profile": [
            "http://hl7.org/fhir/us/ecr/StructureDefinition/eicr-composition"
          ],
          "source": [
            "ecr"
          ]
        },
        "identifier": [
          {
            "use": "official",
            "type": {
              "coding": [
                {
                  "code": "55751-2",
                  "display": "Public Health Case Report",
                  "system": "http://loinc.org"
                }
              ]
            },
            "value": "T0-B20220316073025695"
          }
        ],
        "extension": [
          {
            "url": "http://hl7.org/fhir/StructureDefinition/composition-clinicaldocument-versionNumber",
            "valueString": "1"
          }
        ],
        "status": "final",
        "type": {
          "coding": [
            {
              "code": "55751-2",
              "display": "Public Health Case Report",
              "system": "http://loinc.org"
            }
          ]
        },
        "date": "2022-03-16T07:30:00-04:00",
        "title": "Initial Public Health Case Report",
        "confidentiality": "N",
        "event": [
          {
            "period": {
              "start": "2022-03-16T07:30:00-04:00"
            }
          }
        ],
        "section": [
          {
            "id": "b1d8ef1a-7a4d-0047-b589-d661e4b5e5f7",
            "title": "Care Teams",
            "text": {
              "status": "generated",
              "div": "Patient Care Team Visit Care Team <br><table><thead><tr><th>Team Status: Active</th></tr><tr><th>Member</th><th>Role</th><th>Status</th><th>Dates</th></tr></thead><tbody><tr><td>John Arcand</td><td>Family Provider</td><td>Active</td><td></td></tr><tr><td>Amy Abbatomarco</td><td>Primary Care Provider</td><td>Active</td><td></td></tr></tbody></table><table><thead><tr><th>Team Status: Inactive</th></tr><tr><th>Member</th><th>Role</th><th>Status</th><th>Dates</th></tr></thead><tbody><tr><td>Anthony Brown</td><td>Attending Provider</td><td>Active</td><td></td></tr></tbody></table>"
            },
            "code": {
              "coding": [
                {
                  "code": "85847-2",
                  "display": "Care team",
                  "system": "http://loinc.org"
                }
              ]
            },
            "mode": "snapshot",
            "entry": [
              {
                "reference": "CareTeam/380add44-677b-9067-a850-7b8e346cc41c"
              }
            ]
          },
          {
            "id": "ebee278c-baeb-2ac4-3399-7355f2cabeb5",
            "title": "Reason for Visit",
            "text": {
              "status": "generated",
              "div": "No reason for visit information available"
            },
            "code": {
              "coding": [
                {
                  "code": "29299-5",
                  "display": "Reason for Visit",
                  "system": "http://loinc.org"
                }
              ]
            },
            "mode": "snapshot",
            "extension": [
              {
                "url": "http://hl7.org/fhir/cda/ccda/StructureDefinition/2.16.840.1.113883.10.20.22.2.12"
              }
            ]
          },
          {
            "id": "7b1d6abb-cea5-12c2-6f6b-83e0c1c01b06",
            "title": "History of Present Illness",
            "text": {
              "status": "generated",
              "div": "No history of present illness information available"
            },
            "code": {
              "coding": [
                {
                  "code": "10164-2",
                  "display": "History Of Present Illness",
                  "system": "http://loinc.org"
                }
              ]
            },
            "mode": "snapshot"
          },
          {
            "id": "15a2bce7-c074-f9d1-f09a-ed948075e01b",
            "title": "Social History",
            "text": {
              "status": "generated",
              "div": "Smoking Status Additional Data <br><table><thead><tr><th>Status</th><th>Start Date</th><th>End Date</th><th>Date of Observation</th></tr></thead><tbody><tr><td data-id='smoking-1'>Smokes tobacco daily (finding)</td><td></td><td></td><td>March 25th, 2021 4:57pm</td></tr></tbody></table><table><tbody><tr><th>Assigned Birth Sex</th><td data-id='birthsex'>Female</td></tr></tbody></table>"
            },
            "code": {
              "coding": [
                {
                  "code": "29762-2",
                  "display": "Social History",
                  "system": "http://loinc.org"
                }
              ]
            },
            "mode": "snapshot"
          },
          {
            "id": "5d4264f7-83b0-d350-0a8a-a3c6b42251d0",
            "title": "Problems",
            "text": {
              "status": "generated",
              "div": "Active Problems Inactive/Resolved Problems <br><table><thead><tr><th>Medical Problem</th><th>Onset Date</th><th>Status</th></tr></thead><tbody><tr><td data-id='problem-1'>Cancer complicating childbirth</td><td>March, 2019</td><td>Active</td></tr><tr><td data-id='problem-3'>Hives due to cold and heat exposure</td><td></td><td>Active</td></tr></tbody></table><table><thead><tr><th>Medical Problem</th><th>Onset Date</th><th>Status</th></tr></thead><tbody><tr><td data-id='problem-2'>Full body hives</td><td></td><td>Resolved</td></tr></tbody></table>"
            },
            "code": {
              "coding": [
                {
                  "code": "11450-4",
                  "display": "PROBLEM LIST",
                  "system": "http://loinc.org"
                }
              ]
            },
            "mode": "snapshot",
            "entry": [
              {
                "display": "Problem - Malignant neoplasm complicating childbirth",
                "reference": "Condition/b8b438f3-baf8-ee25-6feb-e0765bf714a7"
              },
              {
                "display": "Problem - Urticaria of entire body",
                "reference": "Condition/ab7995d1-d4c6-c880-a01e-02241798be5a"
              },
              {
                "display": "Problem - Urticaria due to cold and heat",
                "reference": "Condition/26d1765c-0030-323e-1af1-1c3edbeb17f5"
              }
            ]
          },
          {
            "id": "852ab517-1542-a5a5-cc1e-3203df8db945",
            "title": "Immunizations",
            "text": {
              "status": "generated",
              "div": "<table><thead><tr><th>Immunization</th><th>Event Date</th><th>Not Given Reason</th><th>Dose Number</th><th>Manufacturer</th><th>Lot Number</th><th>Vaccine Information Statement (VIS) Detail</th></tr></thead><tbody><tr><td data-id='immun-1'>DTaP</td><td>January 29th, 2019</td><td></td><td></td><td></td><td>245674646</td><td></td></tr><tr><td data-id='immun-2'>DTaP</td><td>January 31st, 2019</td><td></td><td></td><td></td><td>232323232</td><td></td></tr><tr><td data-id='immun-3'>DTaP</td><td>January 31st, 2019</td><td></td><td></td><td></td><td>+56+65464</td><td></td></tr><tr><td data-id='immun-4'>Hepatitis B, Recombinant- Engerix</td><td>February 8th, 2019</td><td></td><td></td><td></td><td>6</td><td></td></tr><tr><td data-id='immun-5'>Fluarix Quad 3YR+</td><td>January 29th, 2019</td><td></td><td></td><td></td><td>55555555555555555</td><td></td></tr><tr><td data-id='immun-6'>Hib, PRP-T Conjugate</td><td>February 8th, 2019</td><td></td><td></td><td></td><td>3546544</td><td></td></tr><tr><td data-id='immun-7'>Measles, Mumps, and Rubella Virus Vaccine</td><td>February 6th, 2019</td><td></td><td></td><td></td><td>545645666</td><td></td></tr><tr><td data-id='immun-8'>Measles, Mumps, and Rubella Virus Vaccine</td><td>February 8th, 2019</td><td></td><td></td><td></td><td>354654</td><td></td></tr><tr><td data-id='immun-9'>GARDASIL</td><td>February 8th, 2019</td><td></td><td></td><td></td><td>2313213113</td><td></td></tr><tr><td data-id='immun-10'>GARDASIL</td><td>February 8th, 2019</td><td></td><td></td><td></td><td>654354354</td><td></td></tr><tr><td data-id='immun-11'>KINRIX</td><td>February 8th, 2019</td><td></td><td></td><td></td><td>56465465464</td><td></td></tr><tr><td data-id='immun-12'>Tenivac</td><td>February 8th, 2019</td><td></td><td></td><td></td><td>2135413511</td><td></td></tr><tr><td data-id='immun-13'>Tenivac</td><td>February 8th, 2019</td><td></td><td></td><td></td><td>4565465465</td><td></td></tr><tr><td data-id='immun-14'>Vaqta</td><td>February 8th, 2019</td><td></td><td></td><td></td><td>534354354</td><td></td></tr><tr><td data-id='immun-15'>Pneumococcal Conjugate Vaccine, 13 valent</td><td>January 29th, 2019</td><td></td><td></td><td></td><td>54654</td><td></td></tr><tr><td data-id='immun-16'>Pneumococcal Conjugate Vaccine, 13 valent</td><td>January 31st, 2019</td><td></td><td></td><td></td><td>75222</td><td></td></tr><tr><td data-id='immun-17'>Pneumococcal Conjugate Vaccine, 13 valent</td><td>January 31st, 2019</td><td></td><td></td><td></td><td></td><td></td></tr><tr><td data-id='immun-18'>Pneumococcal Conjugate Vaccine, 13 valent</td><td>January 31st, 2019</td><td></td><td></td><td></td><td>4564654</td><td></td></tr><tr><td data-id='immun-19'>Pentacel</td><td>February 8th, 2019</td><td></td><td></td><td></td><td>32131324313</td><td></td></tr><tr><td data-id='immun-20'>Pentacel</td><td>February 8th, 2019</td><td></td><td></td><td></td><td>35454364</td><td></td></tr><tr><td data-id='immun-21'>Prevnar 13</td><td>February 8th, 2019</td><td></td><td></td><td></td><td>64654654</td><td></td></tr><tr><td data-id='immun-22'>RotaTeq</td><td>February 8th, 2019</td><td></td><td></td><td></td><td>53465464</td><td></td></tr><tr><td data-id='immun-23'>Varicella Virus Vaccine</td><td>February 6th, 2019</td><td></td><td></td><td></td><td>6545646564</td><td></td></tr></tbody></table>"
            },
            "code": {
              "coding": [
                {
                  "code": "11369-6",
                  "display": "History of immunizations",
                  "system": "http://loinc.org"
                }
              ]
            },
            "mode": "snapshot"
          },
          {
            "id": "b4dca430-0937-826b-5105-4c74964d84fe",
            "title": "Procedures",
            "text": {
              "status": "generated",
              "div": "No procedure information available"
            },
            "code": {
              "coding": [
                {
                  "code": "47519-4",
                  "display": "PROCEDURES",
                  "system": "http://loinc.org"
                }
              ]
            },
            "mode": "snapshot"
          },
          {
            "id": "cb100e34-732f-7121-cf3b-57d896f73289",
            "title": "Relevant Diagnostic Tests and/or Laboratory Data",
            "text": {
              "status": "generated",
              "div": "No known relevant diagnostic tests and/or laboratory data."
            },
            "code": {
              "coding": [
                {
                  "code": "30954-2",
                  "display": "RELEVANT DIAGNOSTIC TESTS AND/OR LABORATORY DATA",
                  "system": "http://loinc.org"
                }
              ]
            },
            "mode": "snapshot"
          },
          {
            "id": "5d05cf65-4e4b-063d-49bd-bd6349f599de",
            "title": "Vital Signs",
            "text": {
              "status": "generated",
              "div": "<table><thead><tr><th>Vital Reading</th><th>Result</th><th>Reference Range</th><th>Collection Date/Time</th></tr></thead><tbody><tr><td>Height</td><td data-id='vitalSign-1.1'>67.00 [in_i]</td><td></td><td>January 29th, 2019 1:14pm</td></tr><tr><td>Weight</td><td data-id='vitalSign-1.2'>160.00 [lb_av]</td><td></td><td>January 29th, 2019 1:14pm</td></tr></tbody></table>"
            },
            "code": {
              "coding": [
                {
                  "code": "8716-3",
                  "display": "VITAL SIGNS",
                  "system": "http://loinc.org"
                }
              ]
            },
            "mode": "snapshot"
          },
          {
            "id": "da89ca8b-0658-c748-895e-faad15d098b7",
            "title": "Administered Medications",
            "text": {
              "status": "generated",
              "div": "No administered medications information available"
            },
            "code": {
              "coding": [
                {
                  "code": "29549-3",
                  "display": "MEDICATIONS ADMINISTERED",
                  "system": "http://loinc.org"
                }
              ]
            },
            "mode": "snapshot"
          },
          {
            "id": "d1b763e9-7d27-cb31-654e-d0cd1f375fb1",
            "title": "Encounters",
            "text": {
              "status": "generated",
              "div": "<table><thead><tr><th>Encounter</th><th>Location(s)</th><th>Arrival/Admit Date</th><th>Discharge/Depart Date</th><th>Provider(s)</th></tr></thead><tbody><tr><td data-id='encounter-1'>Departed Clinical</td><td>MEDITECH General Hospital-Day Hospital - MTGH</td><td>January 29th, 2019 1:09pm</td><td>January 29th, 2019 1:10pm</td><td>Anthony Brown</td></tr></tbody></table><table><thead><tr><th>Manual Initiation Reason</th><th>Date</th></tr></thead><tbody><tr><td>t</td><td>March 16th, 2022 7:30am</td></tr></tbody></table><br>"
            },
            "code": {
              "coding": [
                {
                  "code": "46240-8",
                  "display": "History of encounters",
                  "system": "http://loinc.org"
                }
              ]
            },
            "mode": "snapshot"
          },
          {
            "id": "c2b7c2fa-613d-d7f8-8ec1-b4622d6e2505",
            "title": "Assessments",
            "text": {
              "status": "generated",
              "div": "No assessment information available"
            },
            "code": {
              "coding": [
                {
                  "code": "51848-0",
                  "display": "ASSESSMENTS",
                  "system": "http://loinc.org"
                }
              ]
            },
            "mode": "snapshot"
          },
          {
            "id": "8b6895de-2765-a095-a9a6-a4f37c678d9c",
            "title": "Plan of Treatment",
            "text": {
              "status": "generated",
              "div": "Future Tests Pending Tests Future Visits Referrals to Other Providers Future Procedures Future Medications Patient Instructions <br><table><thead><tr><th>Procedure Name</th><th>Ordered Date</th><th>Scheduled Date</th></tr></thead><tbody><tr><td>Arterial Blood Glucose</td><td>January 25th, 2021 9:39am</td><td>March 14th, 2021 5:08pm</td></tr><tr><td>Ammonia</td><td>January 25th, 2021 9:39am</td><td>January 25th, 2021 9:38am</td></tr></tbody></table>Patient instructions are unavailable Future medication information is unavailable Referral information is unavailable Future appointment information is unavailable Pending diagnostic test information is unavailable Future scheduled test information is unavailable"
            },
            "code": {
              "coding": [
                {
                  "code": "18776-5",
                  "display": "Treatment plan",
                  "system": "http://loinc.org"
                }
              ]
            },
            "mode": "snapshot",
            "entry": [
              {
                "reference": "CarePlan/360f0f52-0434-58ee-1e51-e093e4cf4847"
              }
            ]
          },
          {
            "id": "2294648b-92ad-aeb0-6d17-98ee07fcfcf0",
            "title": "Reportability Response Information Section",
            "text": {
              "status": "generated",
              "div": "<div xmlns=\"http://www.w3.org/1999/xhtml\">Reportability Response Information Section</div>"
            },
            "extension": [
              {
                "url": "http://hl7.org/fhir/us/ecr/StructureDefinition/rr-composition",
                "valueIdentifier": {
                  "use": "official",
                  "type": {
                    "coding": [
                      {
                        "code": "88085-6",
                        "display": "Reportability response report Document Public health",
                        "system": "http://loinc.org"
                      }
                    ]
                  },
                  "value": "ea1ef17d-aa64-41bc-bbf4-fd09d3a8b2c0"
                }
              },
              {
                "url": "http://hl7.org/fhir/us/ecr/StructureDefinition/rr-eicr-processing-status-extension",
                "valueCodeableConcept": {
                  "coding": [
                    {
                      "code": "RRVS19",
                      "display": "eICR processed",
                      "system": "urn:oid:2.16.840.1.114222.4.5.274"
                    }
                  ]
                }
              }
            ],
            "code": {
              "coding": [
                {
                  "code": "88085-6",
                  "display": "Reportability response report Document Public health",
                  "system": "http://loinc.org"
                }
              ]
            }
          }
        ],
        "subject": {
          "reference": "Patient/c82dbe0f-5254-43d8-b0e3-f040f0dc7385"
        },
        "encounter": {
          "reference": "Encounter/b7f1546c-51ce-9f42-2192-05462d480cc9"
        },
        "custodian": {
          "reference": "Organization/33a641be-acd5-9acb-129c-f4b446e2fdcc"
        },
        "author": [
          {
            "reference": "Device/3dfe4b34-9346-2df5-5ab3-ddb7476b1b94"
          }
        ]
      },
      "request": {
        "method": "PUT",
        "url": "Composition/1.22.333.4444.5555"
      }
    },
    {
      "fullUrl": "urn:uuid:b7f1546c-51ce-9f42-2192-05462d480cc9",
      "resource": {
        "resourceType": "Encounter",
        "id": "b7f1546c-51ce-9f42-2192-05462d480cc9",
        "status": "unknown",
        "class": {
          "code": "AMB",
          "display": "ambulatory",
          "system": "urn:oid:2.16.840.1.113883.5.4"
        },
        "identifier": [
          {
            "system": "urn:ietf:rfc:3986",
            "value": "urn:uuid:9e812ee8-cc26-5ac1-a840-d715d08087d6"
          },
          {
            "system": "urn:oid:1.22.333.4444.5555.10",
            "value": "MG0000011808"
          }
        ],
        "period": {
          "start": "2019-01-29T13:09:34-04:00",
          "end": "2019-01-29T13:10:34-04:00"
        },
        "subject": {
          "reference": "Patient/c82dbe0f-5254-43d8-b0e3-f040f0dc7385"
        },
        "location": [
          {
            "id": "20c6886b-8234-52d7-878e-e07322548d99",
            "location": {
              "reference": "Location/f1689a15-519b-0d63-1ea0-e525cee7c42f",
              "display": "MEDITECH General Hospital-Day Hospital - MTGH"
            },
            "extension": [
              {
                "url": "http://build.fhir.org/ig/HL7/case-reporting/StructureDefinition-us-ph-location-definitions.html#Location.type",
                "valueCodeableConcept": {
                  "coding": [
                    {
                      "code": "50",
                      "display": "TEST",
                      "system": "urn:oid:2.16.840.1.113883.5.111"
                    }
                  ]
                }
              }
            ]
          }
        ],
        "participant": [
          {
            "type": [
              {
                "coding": [
                  {
                    "system": "http://terminology.hl7.org/CodeSystem/v3-ParticipationType",
                    "code": "ATND"
                  }
                ]
              }
            ],
            "individual": {
              "reference": "Practitioner/f5f2cfe1-688f-2e8f-6a8d-2ce4a38d739a"
            }
          }
        ],
        "meta": {
          "source": [
            "ecr"
          ]
        }
      },
      "request": {
        "method": "PUT",
        "url": "Encounter/b7f1546c-51ce-9f42-2192-05462d480cc9"
      }
    },
    {
      "fullUrl": "urn:uuid:f1689a15-519b-0d63-1ea0-e525cee7c42f",
      "resource": {
        "resourceType": "Location",
        "id": "f1689a15-519b-0d63-1ea0-e525cee7c42f",
        "identifier": [
          {
            "value": "20c6886b-8234-52d7-878e-e07322548d99"
          }
        ],
        "name": "MEDITECH General Hospital-Day Hospital - MTGH",
        "address": {
          "use": "work",
          "line": [
            "100 Main St"
          ],
          "city": "Vienna",
          "state": "VA",
          "country": "US",
          "postalCode": "22180"
        },
        "type": [
          {
            "coding": [
              {
                "code": "50",
                "display": "TEST",
                "system": "urn:oid:2.16.840.1.113883.5.111"
              }
            ]
          }
        ],
        "meta": {
          "source": [
            "ecr"
          ]
        }
      },
      "request": {
        "method": "PUT",
        "url": "Location/f1689a15-519b-0d63-1ea0-e525cee7c42f"
      }
    },
    {
      "fullUrl": "urn:uuid:f5f2cfe1-688f-2e8f-6a8d-2ce4a38d739a",
      "resource": {
        "resourceType": "Practitioner",
        "id": "f5f2cfe1-688f-2e8f-6a8d-2ce4a38d739a",
        "meta": {
          "profile": [
            "http://hl7.org/fhir/us/core/StructureDefinition/us-core-practitioner"
          ],
          "source": [
            "ecr"
          ]
        },
        "extension": [
          {
            "url": "http://hl7.org/fhir/StructureDefinition/_datatype",
            "valueString": "Responsible Party"
          }
        ],
        "name": [
          {
            "use": "usual",
            "text": "MEDITECH Expanse22 TEST"
          }
        ],
        "address": [
          {
            "line": [
              "111 Main St"
            ],
            "city": "ATLANTA",
            "state": "GA",
            "postalCode": "30318"
          },
          {
            "use": "work",
            "line": [
              "100 Main St"
            ],
            "city": "Vienna",
            "state": "VA",
            "country": "US",
            "postalCode": "22180"
          }
        ],
        "telecom": [
          {
            "system": "phone",
            "value": "+1(781)555-1234",
            "use": "work"
          }
        ]
      },
      "request": {
        "method": "PUT",
        "url": "Practitioner/f5f2cfe1-688f-2e8f-6a8d-2ce4a38d739a"
      }
    },
    {
      "fullUrl": "urn:uuid:33a641be-acd5-9acb-129c-f4b446e2fdcc",
      "resource": {
        "resourceType": "Organization",
        "id": "33a641be-acd5-9acb-129c-f4b446e2fdcc",
        "identifier": [
          {
            "system": "urn:ietf:rfc:3986",
            "value": "urn:uuid:1.22.333.4444.5555"
          }
        ],
        "name": "MTGH Author Name",
        "address": [
          {
            "use": "work",
            "line": [
              "1 Meditech Circle"
            ],
            "city": "Vienna",
            "state": "VA",
            "country": "US",
            "postalCode": "22180"
          }
        ],
        "telecom": [
          {
            "system": "phone",
            "value": "+1(781)774-0000",
            "use": "work"
          },
          {
            "system": "phone",
            "value": "+1(781)774-1111",
            "use": "work"
          }
        ],
        "meta": {
          "source": [
            "ecr"
          ]
        }
      },
      "request": {
        "method": "PUT",
        "url": "Organization/33a641be-acd5-9acb-129c-f4b446e2fdcc"
      }
    },
    {
      "fullUrl": "urn:uuid:3dfe4b34-9346-2df5-5ab3-ddb7476b1b94",
      "resource": {
        "resourceType": "Device",
        "id": "3dfe4b34-9346-2df5-5ab3-ddb7476b1b94",
        "identifier": [
          {
            "system": "urn:ietf:rfc:3986",
            "value": "urn:uuid:1.22.333.4444.5555"
          }
        ],
        "type": {
          "coding": [
            {
              "display": "TESTN.US"
            }
          ]
        },
        "manufacturer": "TESTN.US",
        "version": [
          {
            "value": "TESTN"
          }
        ],
        "category": {
          "coding": [
            {
              "system": "http://hl7.org/fhir/device-category",
              "code": "software",
              "display": "software"
            }
          ]
        },
        "owner": {
          "reference": "Organization/33a641be-acd5-9acb-129c-f4b446e2fdcc"
        },
        "meta": {
          "source": [
            "ecr"
          ]
        }
      },
      "request": {
        "method": "PUT",
        "url": "Device/3dfe4b34-9346-2df5-5ab3-ddb7476b1b94"
      }
    },
    {
      "fullUrl": "urn:uuid:c82dbe0f-5254-43d8-b0e3-f040f0dc7385",
      "resource": {
        "resourceType": "Patient",
        "id": "c82dbe0f-5254-43d8-b0e3-f040f0dc7385",
        "meta": {
          "profile": [
            "http://hl7.org/fhir/us/core/StructureDefinition/us-core-patient"
          ],
          "source": [
            "ecr"
          ]
        },
        "identifier": [
          {
            "system": "urn:oid:1.22.333.4444.5555.3.1.1",
            "value": "MR00008056"
          },
          {
            "system": "urn:oid:1.22.333.4444.5555.2.2.1",
            "value": "T0-B20190129103514364"
          },
          {
            "system": "urn:oid:1.22.333.4444.5555.2.2.3",
            "value": "992A3E90-BAEA-496B-A8E6-9023D2980B67"
          },
          {
            "system": "http://hl7.org/fhir/sid/us-ssn",
            "value": "333-22-4444"
          }
        ],
        "name": [
          {
            "use": "official",
            "family": "Par",
            "given": [
              "Mar",
              "A"
            ],
            "prefix": [
              "Ms"
            ]
          },
          {
            "family": "Par",
            "given": [
              "Mar",
              "MIDDLE NAME CAPS"
            ],
            "prefix": [
              "Madam"
            ],
            "suffix": [
              "Esq"
            ]
          },
          {
            "use": "nickname",
            "family": "Paramount",
            "given": [
              "Make",
              "AP"
            ],
            "prefix": [
              "Mrs"
            ],
            "suffix": [
              "PHD"
            ]
          },
          {
            "family": "Dan",
            "given": [
              "Harmon",
              "Middle"
            ],
            "prefix": [
              "Dr"
            ],
            "suffix": [
              "IV"
            ]
          }
        ],
        "birthDate": "1988-10-04",
        "deceasedBoolean": false,
        "gender": "female",
        "extension": [
          {
            "url": "http://hl7.org/fhir/us/core/StructureDefinition/us-core-race",
            "extension": [
              {
                "url": "ombCategory",
                "valueCoding": {
                  "code": "2076-8",
                  "display": "Native Hawaiian or Other Pacific Islander"
                }
              },
              {
                "url": "ombCategory",
                "valueCoding": {
                  "code": "2028-9",
                  "display": "Asian"
                }
              },
              {
                "url": "ombCategory",
                "valueCoding": {
                  "code": "2054-5",
                  "display": "Black or African American"
                }
              },
              {
                "url": "ombCategory",
                "valueCoding": {
                  "code": "2106-3",
                  "display": "White"
                }
              },
              {
                "url": "text",
                "valueString": "Mixed"
              }
            ]
          },
          {
            "url": "http://hl7.org/fhir/us/core/StructureDefinition/us-core-ethnicity",
            "extension": [
              {
                "url": "ombCategory",
                "valueCoding": {
                  "code": "2135-2",
                  "display": "Hispanic or Latino"
                }
              },
              {
                "url": "detailed",
                "valueCoding": {
                  "code": "2076-8",
                  "display": "Native Hawaiian/Pacific Islander"
                }
              },
              {
                "url": "detailed",
                "valueCoding": {
                  "code": "2106-3",
                  "display": "White"
                }
              },
              {
                "url": "ombCategory",
                "valueCoding": {
                  "code": "2186-5",
                  "display": "Not Hispanic or Latino"
                }
              },
              {
                "url": "text",
                "valueString": "Mixed"
              }
            ]
          },
          {
            "url": "http://hl7.org/fhir/us/core/StructureDefinition/us-core-birthsex",
            "extension": [
              {
                "url": "value",
                "valueCodeableConcept": {
                  "coding": [
                    {
                      "code": "F",
                      "display": "Female",
                      "system": "urn:oid:2.16.840.1.113883.5.1"
                    }
                  ]
                }
              }
            ]
          }
        ],
        "address": [
          {
            "use": "home",
            "line": [
              "4521 Address Line one"
            ],
            "city": "CITY OF INDUSTRY",
            "state": "CA",
            "country": "USA",
            "postalCode": "91714"
          },
          {
            "use": "work",
            "line": [
              "MEDITECH Circle"
            ],
            "city": "Westwood",
            "state": "MA",
            "country": "US",
            "postalCode": "02090"
          }
        ],
        "telecom": [
          {
            "system": "phone",
            "value": "+1(715)442-3378"
          },
          {
            "system": "phone",
            "value": "+1(714)332-5685"
          },
          {
            "system": "phone",
            "value": "+1(715)665-3265"
          },
          {
            "system": "phone",
            "value": "+1(715)443-6523"
          },
          {
            "system": "phone",
            "value": "+1(715)332-6542"
          },
          {
            "system": "email",
            "value": "parmar@email.com"
          }
        ],
        "communication": [
          {
            "language": {
              "coding": [
                {
                  "system": "urn:ietf:bcp:47",
                  "code": "en-us",
                  "display": "English (United States)"
                }
              ]
            },
            "preferred": true
          }
        ]
      },
      "request": {
        "method": "PUT",
        "url": "Patient/c82dbe0f-5254-43d8-b0e3-f040f0dc7385"
      }
    },
    {
      "fullUrl": "urn:uuid:380add44-677b-9067-a850-7b8e346cc41c",
      "resource": {
        "resourceType": "CareTeam",
        "id": "380add44-677b-9067-a850-7b8e346cc41c",
        "subject": {
          "reference": "Patient/c82dbe0f-5254-43d8-b0e3-f040f0dc7385"
        },
        "meta": {
          "source": [
            "ecr"
          ]
        }
      }
    },
    {
      "fullUrl": "urn:uuid:360f0f52-0434-58ee-1e51-e093e4cf4847",
      "resource": {
        "resourceType": "CarePlan",
        "id": "360f0f52-0434-58ee-1e51-e093e4cf4847",
        "status": "unknown",
        "intent": "proposal",
        "subject": {
          "reference": "Patient/c82dbe0f-5254-43d8-b0e3-f040f0dc7385"
        },
        "activity": [
          {
            "detail": {
              "status": "scheduled",
              "scheduledString": "202103141708-0400"
            },
            "extension": [
              {
                "url": "dibbs.orderedDate",
                "valueString": "20210414160302-0400"
              }
            ]
          },
          {
            "detail": {
              "code": {
                "coding": [
                  {
                    "code": "313952006",
                    "display": "Ammonia plas",
                    "system": "http://snomed.info/sct"
                  }
                ]
              },
              "status": "scheduled",
              "scheduledString": "202101250938-0400"
            },
            "extension": [
              {
                "url": "dibbs.orderedDate",
                "valueString": "20210314170826-0400"
              }
            ]
          }
        ],
        "meta": {
          "source": [
            "ecr"
          ]
        }
      },
      "request": {
        "method": "PUT",
        "url": "CarePlan/360f0f52-0434-58ee-1e51-e093e4cf4847"
      }
    },
    {
      "fullUrl": "urn:uuid:b8b438f3-baf8-ee25-6feb-e0765bf714a7",
      "resource": {
        "resourceType": "Condition",
        "id": "b8b438f3-baf8-ee25-6feb-e0765bf714a7",
        "identifier": [
          {
            "system": "urn:ietf:rfc:3986",
            "value": "urn:uuid:e22f85b0-ba73-4493-bf82-9c120702ad12"
          }
        ],
        "category": [
          {
            "coding": [
              {
                "code": "problem-item-list",
                "display": "Problem List Item",
                "system": "http://hl7.org/fhir/us/core/ValueSet/us-core-condition-category"
              }
            ]
          }
        ],
        "code": {
          "coding": [
            {
              "code": "O9A.12",
              "display": "Malignant neoplasm complicating childbirth",
              "system": "urn:oid:2.16.840.1.113883.6.90"
            }
          ]
        },
        "onsetDateTime": "2019-03",
        "subject": {
          "reference": "Patient/c82dbe0f-5254-43d8-b0e3-f040f0dc7385"
        },
        "meta": {
          "source": [
            "ecr"
          ]
        }
      },
      "request": {
        "method": "PUT",
        "url": "Condition/b8b438f3-baf8-ee25-6feb-e0765bf714a7"
      }
    },
    {
      "fullUrl": "urn:uuid:ab7995d1-d4c6-c880-a01e-02241798be5a",
      "resource": {
        "resourceType": "Condition",
        "id": "ab7995d1-d4c6-c880-a01e-02241798be5a",
        "identifier": [
          {
            "system": "urn:ietf:rfc:3986",
            "value": "urn:uuid:d180d206-dc91-49aa-a038-5c3e9cd80b56"
          }
        ],
        "category": [
          {
            "coding": [
              {
                "code": "problem-item-list",
                "display": "Problem List Item",
                "system": "http://hl7.org/fhir/us/core/ValueSet/us-core-condition-category"
              }
            ]
          }
        ],
        "code": {
          "coding": [
            {
              "code": "L50.9",
              "display": "Urticaria of entire body",
              "system": "urn:oid:2.16.840.1.113883.6.90"
            }
          ]
        },
        "onsetDateTime": "2019-03-28T13:32:08-04:00",
        "subject": {
          "reference": "Patient/c82dbe0f-5254-43d8-b0e3-f040f0dc7385"
        },
        "meta": {
          "source": [
            "ecr"
          ]
        }
      },
      "request": {
        "method": "PUT",
        "url": "Condition/ab7995d1-d4c6-c880-a01e-02241798be5a"
      }
    },
    {
      "fullUrl": "urn:uuid:26d1765c-0030-323e-1af1-1c3edbeb17f5",
      "resource": {
        "resourceType": "Condition",
        "id": "26d1765c-0030-323e-1af1-1c3edbeb17f5",
        "identifier": [
          {
            "system": "urn:ietf:rfc:3986",
            "value": "urn:uuid:9009b07f-36df-4e8c-92fd-dda45d7b428c"
          }
        ],
        "category": [
          {
            "coding": [
              {
                "code": "problem-item-list",
                "display": "Problem List Item",
                "system": "http://hl7.org/fhir/us/core/ValueSet/us-core-condition-category"
              }
            ]
          }
        ],
        "code": {
          "coding": [
            {
              "code": "L50.2",
              "display": "Urticaria due to cold and heat",
              "system": "urn:oid:2.16.840.1.113883.6.90"
            }
          ]
        },
        "onsetDateTime": "2019-03-28T13:32:08-04:00",
        "subject": {
          "reference": "Patient/c82dbe0f-5254-43d8-b0e3-f040f0dc7385"
        },
        "meta": {
          "source": [
            "ecr"
          ]
        }
      },
      "request": {
        "method": "PUT",
        "url": "Condition/26d1765c-0030-323e-1af1-1c3edbeb17f5"
      }
    },
    {
      "fullUrl": "urn:uuid:c2deae17-92c7-a36d-d3f6-74f35cd728f4",
      "resource": {
        "resourceType": "Observation",
        "id": "c2deae17-92c7-a36d-d3f6-74f35cd728f4",
        "meta": {
          "profile": [
            "http://hl7.org/fhir/us/core/StructureDefinition/us-core-observationresults"
          ],
          "source": [
            "ecr"
          ]
        },
        "identifier": [
          {
            "system": "urn:ietf:rfc:3986",
            "value": "urn:uuid:b32d7ac4-c26a-4e6f-3d82-9014ff093cbe"
          }
        ],
        "category": [
          {
            "coding": [
              {
                "system": "http://terminology.hl7.org/CodeSystem/observation-category",
                "code": "social-history"
              }
            ]
          }
        ],
        "status": "final",
        "code": {
          "coding": [
            {
              "code": "72166-2",
              "display": "Tobacco smoking status NHIS",
              "system": "http://loinc.org"
            }
          ]
        },
        "effectiveDateTime": "2021-03-25T16:57:00-04:00",
        "valueCodeableConcept": {
          "coding": [
            {
              "code": "449868002",
              "display": "Smokes tobacco daily (finding)",
              "system": "http://snomed.info/sct"
            }
          ]
        },
        "subject": {
          "reference": "Patient/c82dbe0f-5254-43d8-b0e3-f040f0dc7385"
        }
      },
      "request": {
        "method": "PUT",
        "url": "Observation/c2deae17-92c7-a36d-d3f6-74f35cd728f4"
      }
    },
    {
      "fullUrl": "urn:uuid:5325fcc8-0699-78c9-d87d-54ec59e64011",
      "resource": {
        "resourceType": "Observation",
        "id": "5325fcc8-0699-78c9-d87d-54ec59e64011",
        "meta": {
          "profile": [
            "http://hl7.org/fhir/us/core/StructureDefinition/us-core-observationresults"
          ],
          "source": [
            "ecr"
          ]
        },
        "identifier": [
          {
            "system": "urn:ietf:rfc:3986",
            "value": "urn:uuid:b51b9b58-a96e-4586-2e99-f2d2498b97b2"
          }
        ],
        "category": [
          {
            "coding": [
              {
                "system": "http://terminology.hl7.org/CodeSystem/observation-category",
                "code": "vital-signs"
              }
            ]
          }
        ],
        "status": "final",
        "code": {
          "coding": [
            {
              "code": "8302-2",
              "display": "Height",
              "system": "http://loinc.org"
            }
          ]
        },
        "effectiveDateTime": "2019-01-29T13:14:00-04:00",
        "valueQuantity": {
          "value": 67.0,
          "unit": "[in_i]"
        },
        "subject": {
          "reference": "Patient/c82dbe0f-5254-43d8-b0e3-f040f0dc7385"
        }
      },
      "request": {
        "method": "PUT",
        "url": "Observation/5325fcc8-0699-78c9-d87d-54ec59e64011"
      }
    },
    {
      "fullUrl": "urn:uuid:00560308-e44a-5612-5fb4-c9717e20a95e",
      "resource": {
        "resourceType": "Observation",
        "id": "00560308-e44a-5612-5fb4-c9717e20a95e",
        "meta": {
          "profile": [
            "http://hl7.org/fhir/us/core/StructureDefinition/us-core-observationresults"
          ],
          "source": [
            "ecr"
          ]
        },
        "identifier": [
          {
            "system": "urn:ietf:rfc:3986",
            "value": "urn:uuid:f84fd3fc-e537-41e1-2fbc-1e961e1b2bca"
          }
        ],
        "category": [
          {
            "coding": [
              {
                "system": "http://terminology.hl7.org/CodeSystem/observation-category",
                "code": "vital-signs"
              }
            ]
          }
        ],
        "status": "final",
        "code": {
          "coding": [
            {
              "code": "29463-7",
              "display": "Weight",
              "system": "http://loinc.org"
            }
          ]
        },
        "effectiveDateTime": "2019-01-29T13:14:00-04:00",
        "valueQuantity": {
          "value": 160.0,
          "unit": "[lb_av]"
        },
        "subject": {
          "reference": "Patient/c82dbe0f-5254-43d8-b0e3-f040f0dc7385"
        }
      },
      "request": {
        "method": "PUT",
        "url": "Observation/00560308-e44a-5612-5fb4-c9717e20a95e"
      }
    },
    {
      "fullUrl": "urn:uuid:",
      "resource": {
        "resourceType": "Observation",
        "meta": {
          "profile": [
            "http://hl7.org/fhir/us/core/StructureDefinition/us-core-observationresults"
          ],
          "source": [
            "ecr"
          ]
        }
      },
      "request": {
        "method": "PUT",
        "url": "Observation/"
      }
    },
    {
      "fullUrl": "urn:uuid:53458a77-6f8f-2f62-4a21-0e7ba1edde55",
      "resource": {
        "resourceType": "Immunization",
        "id": "53458a77-6f8f-2f62-4a21-0e7ba1edde55",
        "identifier": [
          {
            "system": "urn:ietf:rfc:3986",
            "value": "urn:uuid:e3052725-e6cb-4ffe-45b5-ee99137085e5"
          }
        ],
        "occurrenceDateTime": "2019-01-29",
        "note": {
          "text": "DTaP"
        },
        "vaccineCode": {
          "coding": [
            {
              "code": "106",
              "display": "DTaP",
              "system": "urn:oid:2.16.840.1.113883.12.292"
            }
          ]
        },
        "lotNumber": "245674646",
        "manufacturer": {
          "reference": "Organization/81335318-8424-a5e6-822b-3f53ce03b63f"
        },
        "status": "completed",
        "primarySource": true,
        "patient": {
          "reference": "Patient/c82dbe0f-5254-43d8-b0e3-f040f0dc7385"
        },
        "meta": {
          "source": [
            "ecr"
          ]
        }
      },
      "request": {
        "method": "PUT",
        "url": "Immunization/53458a77-6f8f-2f62-4a21-0e7ba1edde55"
      }
    },
    {
      "fullUrl": "urn:uuid:81335318-8424-a5e6-822b-3f53ce03b63f",
      "resource": {
        "resourceType": "Organization",
        "id": "81335318-8424-a5e6-822b-3f53ce03b63f",
        "meta": {
          "source": [
            "ecr"
          ]
        }
      },
      "request": {
        "method": "PUT",
        "url": "Organization/81335318-8424-a5e6-822b-3f53ce03b63f"
      }
    },
    {
      "fullUrl": "urn:uuid:a401b619-362c-4d95-da56-a163ef933797",
      "resource": {
        "resourceType": "Immunization",
        "id": "a401b619-362c-4d95-da56-a163ef933797",
        "identifier": [
          {
            "system": "urn:ietf:rfc:3986",
            "value": "urn:uuid:fa3c6e48-8375-4fa0-cb96-1fc2c595e1c0"
          }
        ],
        "occurrenceDateTime": "2019-01-31",
        "note": {
          "text": "DTaP"
        },
        "vaccineCode": {
          "coding": [
            {
              "code": "106",
              "display": "DTaP",
              "system": "urn:oid:2.16.840.1.113883.12.292"
            }
          ]
        },
        "lotNumber": "232323232",
        "manufacturer": {
          "reference": "Organization/81335318-8424-a5e6-822b-3f53ce03b63f"
        },
        "status": "completed",
        "primarySource": true,
        "patient": {
          "reference": "Patient/c82dbe0f-5254-43d8-b0e3-f040f0dc7385"
        },
        "meta": {
          "source": [
            "ecr"
          ]
        }
      },
      "request": {
        "method": "PUT",
        "url": "Immunization/a401b619-362c-4d95-da56-a163ef933797"
      }
    },
    {
      "fullUrl": "urn:uuid:73597bb4-2d6e-bfa0-3efe-1e8ce410f13a",
      "resource": {
        "resourceType": "Immunization",
        "id": "73597bb4-2d6e-bfa0-3efe-1e8ce410f13a",
        "identifier": [
          {
            "system": "urn:ietf:rfc:3986",
            "value": "urn:uuid:ff9c1d4e-9b62-4d2f-0d9f-854e923b2719"
          }
        ],
        "occurrenceDateTime": "2019-01-31",
        "note": {
          "text": "DTaP"
        },
        "vaccineCode": {
          "coding": [
            {
              "code": "106",
              "display": "DTaP",
              "system": "urn:oid:2.16.840.1.113883.12.292"
            }
          ]
        },
        "lotNumber": "+56+65464",
        "manufacturer": {
          "reference": "Organization/81335318-8424-a5e6-822b-3f53ce03b63f"
        },
        "status": "completed",
        "primarySource": true,
        "patient": {
          "reference": "Patient/c82dbe0f-5254-43d8-b0e3-f040f0dc7385"
        },
        "meta": {
          "source": [
            "ecr"
          ]
        }
      },
      "request": {
        "method": "PUT",
        "url": "Immunization/73597bb4-2d6e-bfa0-3efe-1e8ce410f13a"
      }
    },
    {
      "fullUrl": "urn:uuid:1ec1cb36-baa3-970c-a758-feb79e2173bb",
      "resource": {
        "resourceType": "Immunization",
        "id": "1ec1cb36-baa3-970c-a758-feb79e2173bb",
        "identifier": [
          {
            "system": "urn:ietf:rfc:3986",
            "value": "urn:uuid:29007cdb-3b1b-4b2d-b6ad-e6c3b3787c3a"
          }
        ],
        "occurrenceDateTime": "2019-02-08",
        "note": {
          "text": "Hepatitis B, Recombinant- Engerix"
        },
        "vaccineCode": {
          "coding": [
            {
              "display": "Hepatitis B, Recombinant- Engerix",
              "system": "urn:oid:2.16.840.1.113883.12.292"
            }
          ]
        },
        "lotNumber": "6",
        "manufacturer": {
          "reference": "Organization/81335318-8424-a5e6-822b-3f53ce03b63f"
        },
        "status": "completed",
        "primarySource": true,
        "patient": {
          "reference": "Patient/c82dbe0f-5254-43d8-b0e3-f040f0dc7385"
        },
        "meta": {
          "source": [
            "ecr"
          ]
        }
      },
      "request": {
        "method": "PUT",
        "url": "Immunization/1ec1cb36-baa3-970c-a758-feb79e2173bb"
      }
    },
    {
      "fullUrl": "urn:uuid:b7a3f9ab-327d-27a2-2d9a-42bf901fe514",
      "resource": {
        "resourceType": "Immunization",
        "id": "b7a3f9ab-327d-27a2-2d9a-42bf901fe514",
        "identifier": [
          {
            "system": "urn:ietf:rfc:3986",
            "value": "urn:uuid:b7ce660c-4516-43ea-89bf-3a28fab0db06"
          }
        ],
        "occurrenceDateTime": "2019-01-29",
        "note": {
          "text": "Fluarix Quad 3YR+"
        },
        "vaccineCode": {
          "coding": [
            {
              "code": "158",
              "display": "Fluarix Quad 3YR+",
              "system": "urn:oid:2.16.840.1.113883.12.292"
            }
          ]
        },
        "lotNumber": "55555555555555555",
        "manufacturer": {
          "reference": "Organization/81335318-8424-a5e6-822b-3f53ce03b63f"
        },
        "status": "completed",
        "primarySource": true,
        "patient": {
          "reference": "Patient/c82dbe0f-5254-43d8-b0e3-f040f0dc7385"
        },
        "meta": {
          "source": [
            "ecr"
          ]
        }
      },
      "request": {
        "method": "PUT",
        "url": "Immunization/b7a3f9ab-327d-27a2-2d9a-42bf901fe514"
      }
    },
    {
      "fullUrl": "urn:uuid:4686834a-3657-1217-f13f-e0717b98611a",
      "resource": {
        "resourceType": "Immunization",
        "id": "4686834a-3657-1217-f13f-e0717b98611a",
        "identifier": [
          {
            "system": "urn:ietf:rfc:3986",
            "value": "urn:uuid:5c0127b3-a12b-4a47-d887-9939998a3236"
          }
        ],
        "occurrenceDateTime": "2019-02-08",
        "note": {
          "text": "Hib, PRP-T Conjugate"
        },
        "vaccineCode": {
          "coding": [
            {
              "code": "48",
              "display": "Hib, PRP-T Conjugate",
              "system": "urn:oid:2.16.840.1.113883.12.292"
            }
          ]
        },
        "lotNumber": "3546544",
        "manufacturer": {
          "reference": "Organization/81335318-8424-a5e6-822b-3f53ce03b63f"
        },
        "status": "completed",
        "primarySource": true,
        "patient": {
          "reference": "Patient/c82dbe0f-5254-43d8-b0e3-f040f0dc7385"
        },
        "meta": {
          "source": [
            "ecr"
          ]
        }
      },
      "request": {
        "method": "PUT",
        "url": "Immunization/4686834a-3657-1217-f13f-e0717b98611a"
      }
    },
    {
      "fullUrl": "urn:uuid:7933bf90-3442-5885-1e54-8c2f8bf2b7c4",
      "resource": {
        "resourceType": "Immunization",
        "id": "7933bf90-3442-5885-1e54-8c2f8bf2b7c4",
        "identifier": [
          {
            "system": "urn:ietf:rfc:3986",
            "value": "urn:uuid:54f12090-5f5c-4f07-cba4-d687f7eb243b"
          }
        ],
        "occurrenceDateTime": "2019-02-06",
        "note": {
          "text": "Measles, Mumps, and Rubella Virus Vaccine"
        },
        "vaccineCode": {
          "coding": [
            {
              "code": "03",
              "display": "Measles, Mumps, and Rubella Virus Vaccine",
              "system": "urn:oid:2.16.840.1.113883.12.292"
            }
          ]
        },
        "lotNumber": "545645666",
        "manufacturer": {
          "reference": "Organization/81335318-8424-a5e6-822b-3f53ce03b63f"
        },
        "status": "completed",
        "primarySource": true,
        "patient": {
          "reference": "Patient/c82dbe0f-5254-43d8-b0e3-f040f0dc7385"
        },
        "meta": {
          "source": [
            "ecr"
          ]
        }
      },
      "request": {
        "method": "PUT",
        "url": "Immunization/7933bf90-3442-5885-1e54-8c2f8bf2b7c4"
      }
    },
    {
      "fullUrl": "urn:uuid:99180b76-5132-8c30-49ee-bb1ed6e6e8c9",
      "resource": {
        "resourceType": "Immunization",
        "id": "99180b76-5132-8c30-49ee-bb1ed6e6e8c9",
        "identifier": [
          {
            "system": "urn:ietf:rfc:3986",
            "value": "urn:uuid:3ff51bbb-7207-4021-41a1-32a42f9609c3"
          }
        ],
        "occurrenceDateTime": "2019-02-08",
        "note": {
          "text": "Measles, Mumps, and Rubella Virus Vaccine"
        },
        "vaccineCode": {
          "coding": [
            {
              "code": "03",
              "display": "Measles, Mumps, and Rubella Virus Vaccine",
              "system": "urn:oid:2.16.840.1.113883.12.292"
            }
          ]
        },
        "lotNumber": "354654",
        "manufacturer": {
          "reference": "Organization/81335318-8424-a5e6-822b-3f53ce03b63f"
        },
        "status": "completed",
        "primarySource": true,
        "patient": {
          "reference": "Patient/c82dbe0f-5254-43d8-b0e3-f040f0dc7385"
        },
        "meta": {
          "source": [
            "ecr"
          ]
        }
      },
      "request": {
        "method": "PUT",
        "url": "Immunization/99180b76-5132-8c30-49ee-bb1ed6e6e8c9"
      }
    },
    {
      "fullUrl": "urn:uuid:2938062f-25d7-9e7e-7a08-ed27619f755a",
      "resource": {
        "resourceType": "Immunization",
        "id": "2938062f-25d7-9e7e-7a08-ed27619f755a",
        "identifier": [
          {
            "system": "urn:ietf:rfc:3986",
            "value": "urn:uuid:55a1c865-be4a-4f72-6b91-094eaae240b7"
          }
        ],
        "occurrenceDateTime": "2019-02-08",
        "note": {
          "text": "GARDASIL"
        },
        "vaccineCode": {
          "coding": [
            {
              "code": "62",
              "display": "GARDASIL",
              "system": "urn:oid:2.16.840.1.113883.12.292"
            }
          ]
        },
        "lotNumber": "2313213113",
        "manufacturer": {
          "reference": "Organization/81335318-8424-a5e6-822b-3f53ce03b63f"
        },
        "status": "completed",
        "primarySource": true,
        "patient": {
          "reference": "Patient/c82dbe0f-5254-43d8-b0e3-f040f0dc7385"
        },
        "meta": {
          "source": [
            "ecr"
          ]
        }
      },
      "request": {
        "method": "PUT",
        "url": "Immunization/2938062f-25d7-9e7e-7a08-ed27619f755a"
      }
    },
    {
      "fullUrl": "urn:uuid:68dac649-e017-5054-13a0-f31498a8f2c8",
      "resource": {
        "resourceType": "Immunization",
        "id": "68dac649-e017-5054-13a0-f31498a8f2c8",
        "identifier": [
          {
            "system": "urn:ietf:rfc:3986",
            "value": "urn:uuid:a245ac80-be52-43df-7d9b-d67e274f5696"
          }
        ],
        "occurrenceDateTime": "2019-02-08",
        "note": {
          "text": "GARDASIL"
        },
        "vaccineCode": {
          "coding": [
            {
              "code": "62",
              "display": "GARDASIL",
              "system": "urn:oid:2.16.840.1.113883.12.292"
            }
          ]
        },
        "lotNumber": "654354354",
        "manufacturer": {
          "reference": "Organization/81335318-8424-a5e6-822b-3f53ce03b63f"
        },
        "status": "completed",
        "primarySource": true,
        "patient": {
          "reference": "Patient/c82dbe0f-5254-43d8-b0e3-f040f0dc7385"
        },
        "meta": {
          "source": [
            "ecr"
          ]
        }
      },
      "request": {
        "method": "PUT",
        "url": "Immunization/68dac649-e017-5054-13a0-f31498a8f2c8"
      }
    },
    {
      "fullUrl": "urn:uuid:86299afc-1390-d152-50d2-54aca90fb36c",
      "resource": {
        "resourceType": "Immunization",
        "id": "86299afc-1390-d152-50d2-54aca90fb36c",
        "identifier": [
          {
            "system": "urn:ietf:rfc:3986",
            "value": "urn:uuid:011b8618-3dc4-473e-20ac-d2a887aa8c85"
          }
        ],
        "occurrenceDateTime": "2019-02-08",
        "note": {
          "text": "KINRIX"
        },
        "vaccineCode": {
          "coding": [
            {
              "code": "130",
              "display": "KINRIX",
              "system": "urn:oid:2.16.840.1.113883.12.292"
            }
          ]
        },
        "lotNumber": "56465465464",
        "manufacturer": {
          "reference": "Organization/81335318-8424-a5e6-822b-3f53ce03b63f"
        },
        "status": "completed",
        "primarySource": true,
        "patient": {
          "reference": "Patient/c82dbe0f-5254-43d8-b0e3-f040f0dc7385"
        },
        "meta": {
          "source": [
            "ecr"
          ]
        }
      },
      "request": {
        "method": "PUT",
        "url": "Immunization/86299afc-1390-d152-50d2-54aca90fb36c"
      }
    },
    {
      "fullUrl": "urn:uuid:efe46f76-3923-d995-4485-6d98b5dc8a85",
      "resource": {
        "resourceType": "Immunization",
        "id": "efe46f76-3923-d995-4485-6d98b5dc8a85",
        "identifier": [
          {
            "system": "urn:ietf:rfc:3986",
            "value": "urn:uuid:242e99fa-3e7e-468d-2c9c-36780afc93d6"
          }
        ],
        "occurrenceDateTime": "2019-02-08",
        "note": {
          "text": "Tenivac"
        },
        "vaccineCode": {
          "coding": [
            {
              "code": "113",
              "display": "Tenivac",
              "system": "urn:oid:2.16.840.1.113883.12.292"
            }
          ]
        },
        "lotNumber": "2135413511",
        "manufacturer": {
          "reference": "Organization/81335318-8424-a5e6-822b-3f53ce03b63f"
        },
        "status": "completed",
        "primarySource": true,
        "patient": {
          "reference": "Patient/c82dbe0f-5254-43d8-b0e3-f040f0dc7385"
        },
        "meta": {
          "source": [
            "ecr"
          ]
        }
      },
      "request": {
        "method": "PUT",
        "url": "Immunization/efe46f76-3923-d995-4485-6d98b5dc8a85"
      }
    },
    {
      "fullUrl": "urn:uuid:bd32274b-0887-49c1-a164-193b9410acc8",
      "resource": {
        "resourceType": "Immunization",
        "id": "bd32274b-0887-49c1-a164-193b9410acc8",
        "identifier": [
          {
            "system": "urn:ietf:rfc:3986",
            "value": "urn:uuid:893739fd-4d1e-432f-d496-cbc54255be01"
          }
        ],
        "occurrenceDateTime": "2019-02-08",
        "note": {
          "text": "Tenivac"
        },
        "vaccineCode": {
          "coding": [
            {
              "code": "113",
              "display": "Tenivac",
              "system": "urn:oid:2.16.840.1.113883.12.292"
            }
          ]
        },
        "lotNumber": "4565465465",
        "manufacturer": {
          "reference": "Organization/81335318-8424-a5e6-822b-3f53ce03b63f"
        },
        "status": "completed",
        "primarySource": true,
        "patient": {
          "reference": "Patient/c82dbe0f-5254-43d8-b0e3-f040f0dc7385"
        },
        "meta": {
          "source": [
            "ecr"
          ]
        }
      },
      "request": {
        "method": "PUT",
        "url": "Immunization/bd32274b-0887-49c1-a164-193b9410acc8"
      }
    },
    {
      "fullUrl": "urn:uuid:2e9075d8-2f9a-aa2b-1b43-0c68ed0b35ab",
      "resource": {
        "resourceType": "Immunization",
        "id": "2e9075d8-2f9a-aa2b-1b43-0c68ed0b35ab",
        "identifier": [
          {
            "system": "urn:ietf:rfc:3986",
            "value": "urn:uuid:d0764e37-6335-4769-6e88-9124db0ffc68"
          }
        ],
        "occurrenceDateTime": "2019-02-08",
        "note": {
          "text": "Vaqta"
        },
        "vaccineCode": {
          "coding": [
            {
              "code": "52",
              "display": "Vaqta",
              "system": "urn:oid:2.16.840.1.113883.12.292"
            }
          ]
        },
        "lotNumber": "534354354",
        "manufacturer": {
          "reference": "Organization/81335318-8424-a5e6-822b-3f53ce03b63f"
        },
        "status": "completed",
        "primarySource": true,
        "patient": {
          "reference": "Patient/c82dbe0f-5254-43d8-b0e3-f040f0dc7385"
        },
        "meta": {
          "source": [
            "ecr"
          ]
        }
      },
      "request": {
        "method": "PUT",
        "url": "Immunization/2e9075d8-2f9a-aa2b-1b43-0c68ed0b35ab"
      }
    },
    {
      "fullUrl": "urn:uuid:028249e2-d6f2-6f25-2e1c-6d48e8cfb1cb",
      "resource": {
        "resourceType": "Immunization",
        "id": "028249e2-d6f2-6f25-2e1c-6d48e8cfb1cb",
        "identifier": [
          {
            "system": "urn:ietf:rfc:3986",
            "value": "urn:uuid:39d1953a-a99d-42a6-89a2-aefd5d13ae1a"
          }
        ],
        "occurrenceDateTime": "2019-01-29",
        "note": {
          "text": "Pneumococcal Conjugate Vaccine, 13 valent"
        },
        "vaccineCode": {
          "coding": [
            {
              "code": "133",
              "display": "Pneumococcal Conjugate Vaccine, 13 valent",
              "system": "urn:oid:2.16.840.1.113883.12.292"
            }
          ]
        },
        "lotNumber": "54654",
        "manufacturer": {
          "reference": "Organization/81335318-8424-a5e6-822b-3f53ce03b63f"
        },
        "status": "completed",
        "primarySource": true,
        "patient": {
          "reference": "Patient/c82dbe0f-5254-43d8-b0e3-f040f0dc7385"
        },
        "meta": {
          "source": [
            "ecr"
          ]
        }
      },
      "request": {
        "method": "PUT",
        "url": "Immunization/028249e2-d6f2-6f25-2e1c-6d48e8cfb1cb"
      }
    },
    {
      "fullUrl": "urn:uuid:3ebea325-c2af-a15a-ff50-24ad8dfa1444",
      "resource": {
        "resourceType": "Immunization",
        "id": "3ebea325-c2af-a15a-ff50-24ad8dfa1444",
        "identifier": [
          {
            "system": "urn:ietf:rfc:3986",
            "value": "urn:uuid:495e33a1-3906-4019-f79e-fe5b1dc51e30"
          }
        ],
        "occurrenceDateTime": "2019-01-31",
        "note": {
          "text": "Pneumococcal Conjugate Vaccine, 13 valent"
        },
        "vaccineCode": {
          "coding": [
            {
              "code": "133",
              "display": "Pneumococcal Conjugate Vaccine, 13 valent",
              "system": "urn:oid:2.16.840.1.113883.12.292"
            }
          ]
        },
        "lotNumber": "75222",
        "manufacturer": {
          "reference": "Organization/81335318-8424-a5e6-822b-3f53ce03b63f"
        },
        "status": "completed",
        "primarySource": true,
        "patient": {
          "reference": "Patient/c82dbe0f-5254-43d8-b0e3-f040f0dc7385"
        },
        "meta": {
          "source": [
            "ecr"
          ]
        }
      },
      "request": {
        "method": "PUT",
        "url": "Immunization/3ebea325-c2af-a15a-ff50-24ad8dfa1444"
      }
    },
    {
      "fullUrl": "urn:uuid:8bc8e07f-a01c-5ffe-2a7c-ab08a9b99c97",
      "resource": {
        "resourceType": "Immunization",
        "id": "8bc8e07f-a01c-5ffe-2a7c-ab08a9b99c97",
        "identifier": [
          {
            "system": "urn:ietf:rfc:3986",
            "value": "urn:uuid:bfb45e9e-9b42-42c8-1083-a15f3bda6e03"
          }
        ],
        "occurrenceDateTime": "2019-01-31",
        "note": {
          "text": "Pneumococcal Conjugate Vaccine, 13 valent"
        },
        "vaccineCode": {
          "coding": [
            {
              "code": "133",
              "display": "Pneumococcal Conjugate Vaccine, 13 valent",
              "system": "urn:oid:2.16.840.1.113883.12.292"
            }
          ]
        },
        "manufacturer": {
          "reference": "Organization/81335318-8424-a5e6-822b-3f53ce03b63f"
        },
        "status": "completed",
        "primarySource": true,
        "patient": {
          "reference": "Patient/c82dbe0f-5254-43d8-b0e3-f040f0dc7385"
        },
        "meta": {
          "source": [
            "ecr"
          ]
        }
      },
      "request": {
        "method": "PUT",
        "url": "Immunization/8bc8e07f-a01c-5ffe-2a7c-ab08a9b99c97"
      }
    },
    {
      "fullUrl": "urn:uuid:b3125f05-6d79-ef56-7374-88b6e9e29d2e",
      "resource": {
        "resourceType": "Immunization",
        "id": "b3125f05-6d79-ef56-7374-88b6e9e29d2e",
        "identifier": [
          {
            "system": "urn:ietf:rfc:3986",
            "value": "urn:uuid:c2795abe-8c27-4c47-4486-90bae8ce5de1"
          }
        ],
        "occurrenceDateTime": "2019-01-31",
        "note": {
          "text": "Pneumococcal Conjugate Vaccine, 13 valent"
        },
        "vaccineCode": {
          "coding": [
            {
              "code": "133",
              "display": "Pneumococcal Conjugate Vaccine, 13 valent",
              "system": "urn:oid:2.16.840.1.113883.12.292"
            }
          ]
        },
        "lotNumber": "4564654",
        "manufacturer": {
          "reference": "Organization/81335318-8424-a5e6-822b-3f53ce03b63f"
        },
        "status": "completed",
        "primarySource": true,
        "patient": {
          "reference": "Patient/c82dbe0f-5254-43d8-b0e3-f040f0dc7385"
        },
        "meta": {
          "source": [
            "ecr"
          ]
        }
      },
      "request": {
        "method": "PUT",
        "url": "Immunization/b3125f05-6d79-ef56-7374-88b6e9e29d2e"
      }
    },
    {
      "fullUrl": "urn:uuid:cde7445e-8a4b-239a-bf9c-25dbd5e5543b",
      "resource": {
        "resourceType": "Immunization",
        "id": "cde7445e-8a4b-239a-bf9c-25dbd5e5543b",
        "identifier": [
          {
            "system": "urn:ietf:rfc:3986",
            "value": "urn:uuid:f0047bd9-0817-47ad-0ba8-cee34a47086e"
          }
        ],
        "occurrenceDateTime": "2019-02-08",
        "note": {
          "text": "Pentacel"
        },
        "vaccineCode": {
          "coding": [
            {
              "code": "110",
              "display": "Pentacel",
              "system": "urn:oid:2.16.840.1.113883.12.292"
            }
          ]
        },
        "lotNumber": "32131324313",
        "manufacturer": {
          "reference": "Organization/81335318-8424-a5e6-822b-3f53ce03b63f"
        },
        "status": "completed",
        "primarySource": true,
        "patient": {
          "reference": "Patient/c82dbe0f-5254-43d8-b0e3-f040f0dc7385"
        },
        "meta": {
          "source": [
            "ecr"
          ]
        }
      },
      "request": {
        "method": "PUT",
        "url": "Immunization/cde7445e-8a4b-239a-bf9c-25dbd5e5543b"
      }
    },
    {
      "fullUrl": "urn:uuid:f1ed7d55-28df-4e16-4ee3-9bab48b0ba7c",
      "resource": {
        "resourceType": "Immunization",
        "id": "f1ed7d55-28df-4e16-4ee3-9bab48b0ba7c",
        "identifier": [
          {
            "system": "urn:ietf:rfc:3986",
            "value": "urn:uuid:a7a9942e-70a9-4530-869d-ebfe78e92c27"
          }
        ],
        "occurrenceDateTime": "2019-02-08",
        "note": {
          "text": "Pentacel"
        },
        "vaccineCode": {
          "coding": [
            {
              "code": "110",
              "display": "Pentacel",
              "system": "urn:oid:2.16.840.1.113883.12.292"
            }
          ]
        },
        "lotNumber": "35454364",
        "manufacturer": {
          "reference": "Organization/81335318-8424-a5e6-822b-3f53ce03b63f"
        },
        "status": "completed",
        "primarySource": true,
        "patient": {
          "reference": "Patient/c82dbe0f-5254-43d8-b0e3-f040f0dc7385"
        },
        "meta": {
          "source": [
            "ecr"
          ]
        }
      },
      "request": {
        "method": "PUT",
        "url": "Immunization/f1ed7d55-28df-4e16-4ee3-9bab48b0ba7c"
      }
    },
    {
      "fullUrl": "urn:uuid:4cb2dcdf-3470-94a0-6941-68f3acbc2dfc",
      "resource": {
        "resourceType": "Immunization",
        "id": "4cb2dcdf-3470-94a0-6941-68f3acbc2dfc",
        "identifier": [
          {
            "system": "urn:ietf:rfc:3986",
            "value": "urn:uuid:ae963335-4cdb-4f2f-3dbf-5e722e6250ce"
          }
        ],
        "occurrenceDateTime": "2019-02-08",
        "note": {
          "text": "Prevnar 13"
        },
        "vaccineCode": {
          "coding": [
            {
              "code": "133",
              "display": "Prevnar 13",
              "system": "urn:oid:2.16.840.1.113883.12.292"
            }
          ]
        },
        "lotNumber": "64654654",
        "manufacturer": {
          "reference": "Organization/81335318-8424-a5e6-822b-3f53ce03b63f"
        },
        "status": "completed",
        "primarySource": true,
        "patient": {
          "reference": "Patient/c82dbe0f-5254-43d8-b0e3-f040f0dc7385"
        },
        "meta": {
          "source": [
            "ecr"
          ]
        }
      },
      "request": {
        "method": "PUT",
        "url": "Immunization/4cb2dcdf-3470-94a0-6941-68f3acbc2dfc"
      }
    },
    {
      "fullUrl": "urn:uuid:a839d312-a127-e803-d041-89ccd0544a20",
      "resource": {
        "resourceType": "Immunization",
        "id": "a839d312-a127-e803-d041-89ccd0544a20",
        "identifier": [
          {
            "system": "urn:ietf:rfc:3986",
            "value": "urn:uuid:9f98c254-e2da-4d1d-3ea8-fb4369e96ac1"
          }
        ],
        "occurrenceDateTime": "2019-02-08",
        "note": {
          "text": "RotaTeq"
        },
        "vaccineCode": {
          "coding": [
            {
              "code": "119",
              "display": "RotaTeq",
              "system": "urn:oid:2.16.840.1.113883.12.292"
            }
          ]
        },
        "lotNumber": "53465464",
        "manufacturer": {
          "reference": "Organization/81335318-8424-a5e6-822b-3f53ce03b63f"
        },
        "status": "completed",
        "primarySource": true,
        "patient": {
          "reference": "Patient/c82dbe0f-5254-43d8-b0e3-f040f0dc7385"
        },
        "meta": {
          "source": [
            "ecr"
          ]
        }
      },
      "request": {
        "method": "PUT",
        "url": "Immunization/a839d312-a127-e803-d041-89ccd0544a20"
      }
    },
    {
      "fullUrl": "urn:uuid:bbc3af85-d207-dbbf-7644-5ba4768b8d7d",
      "resource": {
        "resourceType": "Immunization",
        "id": "bbc3af85-d207-dbbf-7644-5ba4768b8d7d",
        "identifier": [
          {
            "system": "urn:ietf:rfc:3986",
            "value": "urn:uuid:99323c0f-bfbe-4cf2-9687-821cca99346f"
          }
        ],
        "occurrenceDateTime": "2019-02-06",
        "note": {
          "text": "Varicella Virus Vaccine"
        },
        "vaccineCode": {
          "coding": [
            {
              "code": "21",
              "display": "Varicella Virus Vaccine",
              "system": "urn:oid:2.16.840.1.113883.12.292"
            }
          ]
        },
        "lotNumber": "6545646564",
        "manufacturer": {
          "reference": "Organization/81335318-8424-a5e6-822b-3f53ce03b63f"
        },
        "status": "completed",
        "primarySource": true,
        "patient": {
          "reference": "Patient/c82dbe0f-5254-43d8-b0e3-f040f0dc7385"
        },
        "meta": {
          "source": [
            "ecr"
          ]
        }
      },
      "request": {
        "method": "PUT",
        "url": "Immunization/bbc3af85-d207-dbbf-7644-5ba4768b8d7d"
      }
    }
  ]
}
