{
  "resourceType": "Bundle",
  "type": "batch",
  "entry": [
    {
      "fullUrl": "urn:uuid:df33f075-83a1-4d28-ba63-05bcc3339c21",
      "resource": {
        "resourceType": "Composition",
        "id": "df33f075-83a1-4d28-ba63-05bcc3339c21",
        "meta": {
          "profile": [
            "http://hl7.org/fhir/us/ecr/StructureDefinition/eicr-composition"
          ],
          "source": [
            "ecr"
          ]
        },
        "identifier": [
          {
            "use": "official",
            "type": {
              "coding": [
                {
                  "code": "55751-2",
                  "display": "Initial Public Health Case Report",
                  "system": "http://loinc.org"
                }
              ]
            },
            "value": "34682681|64851396"
          }
        ],
        "extension": [
          {
            "url": "http://hl7.org/fhir/StructureDefinition/composition-clinicaldocument-versionNumber",
            "valueString": "2"
          }
        ],
        "status": "final",
        "type": {
          "coding": [
            {
              "code": "55751-2",
              "display": "Initial Public Health Case Report",
              "system": "http://loinc.org"
            }
          ]
        },
        "date": "2022-04-15T05:24:59Z",
        "title": "Initial Public Health Case Report",
        "confidentiality": "N",
        "section": [
          {
            "id": "3e5d0a34-2c60-8934-a031-bf45982d4640",
            "title": "PROBLEMS - DIAGNOSES",
            "text": {
              "status": "generated",
              "div": "<table><thead><tr><th>Problem or Diagnosis</th><th>Problem Status</th></tr></thead><tbody><tr><td>Closed injury of head (disorder)</td><td>Active</td></tr><tr><td>COVID-19</td><td>Active</td></tr><tr><td>Hypertensive disorder, systemic arterial (disorder)</td><td>Active</td></tr><tr><td>Neoplasm of pituitary gland (disorder)</td><td>Active</td></tr><tr><td>Cerebrovascular accident (disorder)</td><td>Active</td></tr><tr><td>Low back strain</td><td>Active</td></tr><tr><td>Motor vehicle crash, injury</td><td>Active</td></tr><tr><td>Chronic male pelvic pain</td><td>Active</td></tr><tr><td>Strain of neck</td><td>Active</td></tr><tr><td>Cervicogenic headache</td><td>Active</td></tr></tbody></table>"
            },
            "code": {
              "coding": [
                {
                  "code": "11450-4",
                  "display": "PROBLEM LIST",
                  "system": "http://loinc.org"
                }
              ]
            },
            "mode": "snapshot",
            "entry": [
              {
                "display": "Problem - Closed injury of head (disorder)",
                "reference": "Condition/47c4eafe-d230-03e3-a449-f3d4e8a570bb"
              },
              {
                "display": "Problem - Disease caused by 2019-nCoV",
                "reference": "Condition/7bcd701e-5d28-f178-a33f-64aa74239d54"
              },
              {
                "reference": "Condition/bc63883a-ebd9-370f-0d9f-ad35c8fe7f52"
              },
              {
                "display": "Problem - Hypertensive disorder, systemic arterial (disorder)",
                "reference": "Condition/07559a5f-52d6-186f-25fd-123dd7950656"
              },
              {
                "display": "Problem - Neoplasm of pituitary gland (disorder)",
                "reference": "Condition/063ada0c-960f-8557-e828-76ea3ed99aba"
              },
              {
                "display": "Problem - Cerebrovascular accident (disorder)",
                "reference": "Condition/2b0e32d9-1c75-b38e-c628-165e8fb18782"
              },
              {
                "display": "Problem - Low back strain (disorder)",
                "reference": "Condition/eef12569-0e57-b962-463d-8c74f3f211eb"
              },
              {
                "display": "Problem - Motor vehicle injury (disorder)",
                "reference": "Condition/8fabb65c-a7bc-d78a-ee66-87bc0f6f8f23"
              },
              {
                "display": "Problem - Chronic pain in male pelvis (finding)",
                "reference": "Condition/65565a5f-5d97-9656-fc4f-c3fac1b55e3d"
              },
              {
                "display": "Problem - Strain of neck muscle (disorder)",
                "reference": "Condition/2c4295cc-bde8-63b2-7f48-081683140235"
              },
              {
                "display": "Problem - Cervicogenic headache (finding)",
                "reference": "Condition/6e0fec6b-8384-ad29-0f00-a6c9e11d0a29"
              }
            ]
          },
          {
            "id": "c559c907-9f5c-028a-07d7-1fd82fc505e8",
            "title": "ENCOUNTERS",
            "text": {
              "status": "generated",
              "div": "<table><thead><tr><th>Encounter Reason</th><th>Date of Encounter</th></tr></thead><tbody><tr><td>observation encounter</td><td>20220413083600+0000</td></tr></tbody></table>"
            },
            "code": {
              "coding": [
                {
                  "code": "46240-8",
                  "display": "History of Encounters",
                  "system": "http://loinc.org"
                }
              ]
            },
            "mode": "snapshot"
          },
          {
            "id": "a7c180db-0fa9-6f2b-4d30-bc7884e7e212",
            "title": "RESULTS",
            "text": {
              "status": "generated",
              "div": "<table><thead><tr><th>Lab Test Name</th><th>Lab Test Result Value</th><th>Lab Test Result Date</th></tr></thead><tbody><tr><td>Chol/HDL Risk</td><td>Unknown</td><td></td></tr><tr><td>Phosphorus</td><td>4.1|http://unitsofmeasure.org|mg/dL</td><td></td></tr><tr><td>VLDL Chol Calc</td><td>34.00|http://unitsofmeasure.org|mg/dL</td><td></td></tr><tr><td>LDL Direct</td><td>81|http://unitsofmeasure.org|mg/dL</td><td></td></tr><tr><td>Trig</td><td>168|http://unitsofmeasure.org|mg/dL</td><td></td></tr><tr><td>PTT</td><td>31|http://unitsofmeasure.org|Seconds</td><td></td></tr><tr><td>PT</td><td>10.6|http://unitsofmeasure.org|Seconds</td><td></td></tr><tr><td>Mg Lvl</td><td>1.9|http://unitsofmeasure.org|mg/dL</td><td></td></tr><tr><td>HDL</td><td>36|http://unitsofmeasure.org|mg/dL</td><td></td></tr><tr><td>Cholesterol</td><td>129|http://unitsofmeasure.org|mg/dL</td><td></td></tr><tr><td>INR</td><td>Unknown</td><td></td></tr><tr><td>Estimated Creatinine Clearance</td><td>104.42|http://unitsofmeasure.org|mL/min</td><td></td></tr><tr><td>eGFR Pediatric</td><td>Not Reported</td><td></td></tr><tr><td>Calc Osmo</td><td>277|http://unitsofmeasure.org|mOsmol/kg</td><td></td></tr><tr><td>A/G Ratio</td><td>Unknown</td><td></td></tr><tr><td>eGFR Non-African American</td><td>88|http://unitsofmeasure.org|mL/min/1.73m2</td><td></td></tr><tr><td>eGFR African American</td><td>102|http://unitsofmeasure.org|mL/min/1.73m2</td><td></td></tr><tr><td>NRBC #</td><td>0.02|http://unitsofmeasure.org|x10e3/mcL</td><td></td></tr><tr><td>Sodium</td><td>137|http://unitsofmeasure.org|mmol/L</td><td></td></tr><tr><td>Potassium</td><td>4.1|http://unitsofmeasure.org|mmol/L</td><td></td></tr><tr><td>Baso # Auto</td><td>0.05|http://unitsofmeasure.org|x10e3/mcL</td><td></td></tr><tr><td>Albumin. Level</td><td>3.6|http://unitsofmeasure.org|gm/dL</td><td></td></tr><tr><td>Mono # Auto</td><td>1.15|http://unitsofmeasure.org|x10e3/mcL</td><td></td></tr><tr><td>Neut # Auto</td><td>7.67|http://unitsofmeasure.org|x10e3/mcL</td><td></td></tr><tr><td>Baso % Auto</td><td>0.4|http://unitsofmeasure.org|%</td><td></td></tr><tr><td>Eos % Auto</td><td>0.8|http://unitsofmeasure.org|%</td><td></td></tr><tr><td>Lymph % Auto</td><td>34.1|http://unitsofmeasure.org|%</td><td></td></tr><tr><td>Neut % Auto</td><td>56.1|http://unitsofmeasure.org|%</td><td></td></tr><tr><td>Calcium</td><td>9.6|http://unitsofmeasure.org|mg/dL</td><td></td></tr><tr><td>RDW-SD</td><td>45.6|http://unitsofmeasure.org|Femtoliters</td><td></td></tr><tr><td>Immature Grans # Auto</td><td>0.03|http://unitsofmeasure.org|x10e3/mcL</td><td></td></tr><tr><td>Lymph # Auto</td><td>4.67|http://unitsofmeasure.org|x10e3/mcL</td><td></td></tr><tr><td>Mono % Auto</td><td>8.4|http://unitsofmeasure.org|%</td><td></td></tr><tr><td>RDW-CV</td><td>17.5|http://unitsofmeasure.org|%</td><td></td></tr><tr><td>Immature Grans %</td><td>0.2|http://unitsofmeasure.org|%</td><td></td></tr><tr><td>Eos # Auto</td><td>0.11|http://unitsofmeasure.org|x10e3/mcL</td><td></td></tr><tr><td>Chloride</td><td>105|http://unitsofmeasure.org|mmol/L</td><td></td></tr><tr><td>BUN</td><td>23|http://unitsofmeasure.org|mg/dL</td><td></td></tr><tr><td>Plt</td><td>315|http://unitsofmeasure.org|x10e3/mcL</td><td></td></tr><tr><td>WBC</td><td>13.68|http://unitsofmeasure.org|x10e3/mcL</td><td></td></tr><tr><td>TP</td><td>7.5|http://unitsofmeasure.org|gm/dL</td><td></td></tr><tr><td>RBC</td><td>5.41|http://unitsofmeasure.org|x10e6/mcL</td><td></td></tr><tr><td>PTT</td><td>30|http://unitsofmeasure.org|Seconds</td><td></td></tr><tr><td>PT</td><td>10.8|http://unitsofmeasure.org|Seconds</td><td></td></tr><tr><td>MPV</td><td>8.3|http://unitsofmeasure.org|Femtoliters</td><td></td></tr><tr><td>MCV</td><td>72.3|http://unitsofmeasure.org|Femtoliters</td><td></td></tr><tr><td>MCHC</td><td>30.4|http://unitsofmeasure.org|gm/dL</td><td></td></tr><tr><td>MCH</td><td>22.0|http://unitsofmeasure.org|pg</td><td></td></tr><tr><td>Hgb</td><td>11.9|http://unitsofmeasure.org|gm/dL</td><td></td></tr><tr><td>Hct</td><td>39.1|http://unitsofmeasure.org|%</td><td></td></tr><tr><td>Glucose Level</td><td>95|http://unitsofmeasure.org|mg/dL</td><td></td></tr><tr><td>CO2</td><td>29|http://unitsofmeasure.org|mmol/L</td><td></td></tr><tr><td>T Bili</td><td>0.2|http://unitsofmeasure.org|mg/dL</td><td></td></tr><tr><td>AST</td><td>20|http://unitsofmeasure.org|units/L</td><td></td></tr><tr><td>ALT</td><td>26|http://unitsofmeasure.org|units/L</td><td></td></tr><tr><td>Alk Phos</td><td>74|http://unitsofmeasure.org|units/L</td><td></td></tr><tr><td>NRBC %</td><td>0.1|http://unitsofmeasure.org|/100 WBC</td><td></td></tr><tr><td>BUN/Creat Ratio</td><td>Unknown</td><td></td></tr><tr><td>INR</td><td>Unknown</td><td></td></tr><tr><td>Anion Gap</td><td>3|http://unitsofmeasure.org|mmol/L</td><td></td></tr><tr><td>Creatinine</td><td>1.010|http://unitsofmeasure.org|mg/dL</td><td></td></tr></tbody></table>"
            },
            "code": {
              "coding": [
                {
                  "code": "30954-2",
                  "display": "RESULTS",
                  "system": "http://loinc.org"
                }
              ]
            },
            "mode": "snapshot",
            "entry": [
              {
                "reference": "Observation/669afe70-d46a-6c5a-bfaa-0462d90ba971"
              },
              {
                "reference": "Observation/72cffbc2-4943-2898-0594-ee8d47b84782"
              },
              {
                "reference": "Observation/25b26309-ce1b-541b-2ad0-b4037f1c2ed2"
              },
              {
                "reference": "Observation/d500db57-e204-1544-45d3-5807c1f361da"
              },
              {
                "reference": "Observation/24667cf4-bccd-7cb6-c513-1757c3d3df56"
              },
              {
                "reference": "Observation/5659d25c-4bc9-f555-dea4-9d3b30666798"
              },
              {
                "reference": "Observation/b7ef76fe-e4e3-198b-2f9a-d794724e2409"
              },
              {
                "reference": "Observation/aec5ef09-b2e9-f0d2-6c16-a68dfce76c33"
              },
              {
                "reference": "Observation/d6b3d327-931e-9310-be54-6e5c0ac9369c"
              },
              {
                "reference": "Observation/a944fa13-5e3c-f119-b12e-f15d1c8ec410"
              },
              {
                "reference": "Observation/9933511b-0922-5c70-fede-3fcb109c0b5d"
              },
              {
                "reference": "Observation/e0aa51dc-77f9-41b2-e379-d0dd6d532e37"
              },
              {
                "reference": "Observation/2995211e-b63a-04e0-291b-8b03d6e7209a"
              },
              {
                "reference": "Observation/041d93a8-0ae4-7b9c-e1a6-15f8c7c6abdd"
              },
              {
                "reference": "Observation/c8cd2349-1637-810c-2bb6-2a1997019295"
              },
              {
                "reference": "Observation/264a6633-15a4-ffe9-a878-bfb37039c654"
              },
              {
                "reference": "Observation/fcf12021-cb7c-e1d8-b42a-5bca54402469"
              },
              {
                "reference": "Observation/3c2e98a4-fd49-f6db-d8d2-8aa7eb96ee5f"
              },
              {
                "reference": "Observation/bb2380e8-f0e2-2280-ea12-5ff8ad038e59"
              },
              {
                "reference": "Observation/505e9087-9721-c2a2-844d-99133b9fe974"
              },
              {
                "reference": "Observation/2f178a8f-6e74-bb84-5619-0418924c6a7e"
              },
              {
                "reference": "Observation/cfc53f36-abef-d177-e089-957c73c2fc07"
              },
              {
                "reference": "Observation/f0d9b1a9-5706-8f53-b267-d05e692a19c6"
              },
              {
                "reference": "Observation/ea70cb27-85f0-b205-d658-cf9ebdf40802"
              },
              {
                "reference": "Observation/607685f7-0b3f-e484-0766-80dd6d4a5842"
              },
              {
                "reference": "Observation/b35693d0-16d6-31d1-3fa9-e7691d7dc924"
              },
              {
                "reference": "Observation/8c4061ab-74df-5093-6808-7ad07235e7e6"
              },
              {
                "reference": "Observation/d2719f59-27ca-6226-f3bd-586ef734eef5"
              },
              {
                "reference": "Observation/66a38bce-d5b3-fb1c-7e04-46069d2cdce4"
              },
              {
                "reference": "Observation/3ca70793-400f-6caa-a25b-3a7ae07c5e39"
              },
              {
                "reference": "Observation/7899eb53-1762-5452-2c01-1e89e87ecd75"
              },
              {
                "reference": "Observation/e5978ea1-fec6-e6e8-5475-4c31c3c8abd7"
              },
              {
                "reference": "Observation/eae839eb-9d6e-c9a8-1ac4-3dfbc3fac67d"
              },
              {
                "reference": "Observation/7bbbf1a2-c4b2-c3ad-1832-788db7fa92fd"
              },
              {
                "reference": "Observation/f17a85de-82fa-d809-2c99-6068baa126b4"
              },
              {
                "reference": "Observation/d4b48186-6821-f30d-991d-1bd6f3b6691a"
              },
              {
                "reference": "Observation/a1b7f8a7-7536-d96d-b436-74817230c55c"
              },
              {
                "reference": "Observation/b242c5d7-74a7-6595-1783-7f6ee197f901"
              },
              {
                "reference": "Observation/4ced71d6-ad9e-c3b4-9142-4ee295fc2e17"
              },
              {
                "reference": "Observation/cd894b93-2504-2748-b955-f5ff523887ba"
              },
              {
                "reference": "Observation/70d289aa-7f9b-bf1e-ecdf-c4d09e4a5093"
              },
              {
                "reference": "Observation/05ba4e77-2ddf-8ab6-d92c-8e53fa1d55ed"
              },
              {
                "reference": "Observation/a7d3def7-6bec-a8f8-d328-04c40aadecc9"
              },
              {
                "reference": "Observation/244ddfa2-dd36-d911-97a9-7b3f8365b190"
              },
              {
                "reference": "Observation/e5aa0a6b-9119-af83-bbc9-d4eca6c9b313"
              },
              {
                "reference": "Observation/1850e9fa-7ef5-6507-e975-b99aa75a098f"
              },
              {
                "reference": "Observation/7e081ec9-af06-a434-a0ca-f823aff8bae4"
              },
              {
                "reference": "Observation/4fe4411e-4b85-1cf4-b1b2-5f53555963ed"
              },
              {
                "reference": "Observation/858a2450-e45d-5df7-afb5-ac38115a7487"
              },
              {
                "reference": "Observation/3b80b0f0-da03-a615-f69c-57b4591b96ea"
              },
              {
                "reference": "Observation/dd63811b-60e3-605b-95b1-79b1305bd70e"
              },
              {
                "reference": "Observation/7a4e1aac-b8b1-2179-a80c-e8c40934fff2"
              },
              {
                "reference": "Observation/e86f39d7-4e90-9fca-677f-db58aeeca42e"
              },
              {
                "reference": "Observation/539d5565-69b3-91fd-0744-f4e3c054e510"
              },
              {
                "reference": "Observation/4605c412-3f46-1c67-e8d8-267f8974d192"
              },
              {
                "reference": "Observation/ccb14b90-044c-fc57-6fc7-7cee67f06222"
              },
              {
                "reference": "Observation/15b3d8a9-8ae7-0ab9-7ffe-57dff7a9cffd"
              },
              {
                "reference": "Observation/7d9bc710-a31d-4047-df2f-2cafd97cb02e"
              },
              {
                "reference": "Observation/aa0825c8-2cd8-f610-178b-16de6aafe423"
              },
              {
                "reference": "Observation/e97c82cc-56f0-2980-85b1-e983dac30917"
              },
              {
                "reference": "Observation/1c9600bc-b586-f001-25fc-13be72f7f296"
              }
            ]
          },
          {
            "id": "3bb3aac3-d469-3fba-d196-ba5e7a2c2801",
            "title": "Medications Administered",
            "text": {
              "status": "generated",
              "div": "<table><thead><tr><th>Medication Name</th><th>Medication Start Date</th></tr></thead><tbody><tr><td>docusate (Colace)</td><td>20220413132200+0000</td></tr><tr><td>acetaminophen (Tylenol)</td><td>20220413132200+0000</td></tr><tr><td>hydrocodone-acetaminophen (Norco 5 mg-325 mg oral tablet)</td><td>20220413132200+0000</td></tr><tr><td>ipratropium-albuterol (DuoNeb)</td><td>20220413132200+0000</td></tr><tr><td>hydrALAZINE</td><td>20220413132200+0000</td></tr><tr><td>labetalol</td><td>20220413132200+0000</td></tr><tr><td>levETIRAcetam (Keppra)</td><td>Unknown</td></tr><tr><td>meclizine</td><td>20220413113800+0000</td></tr><tr><td>melatonin (melatonin 3 mg oral tablet)</td><td>20220413132200+0000</td></tr><tr><td>morphine</td><td>20220413132200+0000</td></tr><tr><td>ondansetron (Zofran)</td><td>20220413132200+0000</td></tr><tr><td>simethicone (Mylicon)</td><td>20220413132200+0000</td></tr><tr><td>heparin</td><td>20220413170000+0000</td></tr><tr><td>famotidine (Pepcid)</td><td>Unknown</td></tr><tr><td>Sodium Chloride 0.9% intravenous solution 1,000 mL</td><td>20220413110600+0000</td></tr><tr><td>acetaminophen (Tylenol)</td><td>20220413110600+0000</td></tr><tr><td>heparin</td><td>20220413130000+0000</td></tr><tr><td>morphine</td><td>20220413113700+0000</td></tr><tr><td>ondansetron (Zofran)</td><td>20220413110600+0000</td></tr><tr><td>morphine</td><td>20220413105900+0000</td></tr><tr><td>prochlorperazine (Compazine)</td><td>20220413120000+0000</td></tr><tr><td>diphenhydrAMINE (Benadryl)</td><td>20220413105900+0000</td></tr><tr><td>ketorolac (Toradol)</td><td>20220413105900+0000</td></tr></tbody></table>"
            },
            "code": {
              "coding": [
                {
                  "code": "29549-3",
                  "display": "Medications Administered",
                  "system": "http://loinc.org"
                }
              ]
            },
            "mode": "snapshot"
          },
          {
            "id": "dd08df91-869b-46df-dd36-c5c0f2ad2eae",
            "title": "IMMUNIZATIONS",
            "text": {
              "status": "generated",
              "div": "No ImmunizationInformation"
            },
            "code": {
              "coding": [
                {
                  "code": "11369-6",
                  "display": "History of immunizations",
                  "system": "http://loinc.org"
                }
              ]
            },
            "mode": "snapshot"
          },
          {
            "id": "c74504df-1bdc-137f-3790-44f6cea7fa89",
            "title": "SOCIAL HISTORY",
            "text": {
              "status": "generated",
              "div": "<table><thead><tr><th>Social History Observation</th><th>Social History Observation Result</th></tr></thead><tbody><tr><td>Birth Sex</td><td>M</td></tr><tr><td>Travel History</td><td>Pregnancy Status-Not applicable (qualifier value)</td></tr><tr><td>Travel History</td><td>COVID-19 Previously tested-No (qualifier value)</td></tr><tr><td>Travel History</td><td>TB Risk Score-</td></tr><tr><td>Travel History</td><td>Symptoms of TB-No symptoms of TB</td></tr><tr><td>Travel History</td><td>History of tuberculosis (situation)-No known history of exposure to TB</td></tr><tr><td>Travel History</td><td>C.diff Screening-No (qualifier value)</td></tr><tr><td>Travel History</td><td>MRSA Screen Hx MRSA-No (qualifier value)</td></tr><tr><td>Travel History</td><td>Recent Exposure to Communicable Disease-No (qualifier value)</td></tr><tr><td>Travel History</td><td>Pregnancy Status-Not applicable (qualifier value)</td></tr></tbody></table>"
            },
            "code": {
              "coding": [
                {
                  "code": "29762-2",
                  "display": "Social History",
                  "system": "http://loinc.org"
                }
              ]
            },
            "mode": "snapshot",
            "entry": [
              {
                "reference": "Observation/39fc6765-cae0-47b1-a804-7b1c6c7ebf10"
              },
              {
                "reference": "Observation/cab882e1-ae87-073d-b589-f5330181b738"
              },
              {
                "reference": "Observation/1258a4be-b52b-8064-23cb-54aff2543b55"
              },
              {
                "reference": "Observation/b13e6f13-9f5e-714e-f96f-b446cf5058bd"
              },
              {
                "reference": "Observation/930bcc29-63f3-183d-5bf3-411ee1901bf0"
              },
              {
                "reference": "Observation/49e16c19-d8f8-ca01-2066-ba0f92f28886"
              },
              {
                "reference": "Observation/ceba9aac-0792-15bf-7119-9c24f91e9cca"
              },
              {
                "reference": "Observation/6b250e41-9ec3-b90e-be74-38babc748acf"
              },
              {
                "reference": "Observation/4f434448-9204-4702-56c2-cad22e575809"
              }
            ]
          },
          {
            "id": "7dbd51e8-1c15-8cfa-cbce-f6f4b9a1ed5d",
            "title": "Plan of Treatment",
            "text": {
              "status": "generated",
              "div": "No Plan Of Treatment Information"
            },
            "code": {
              "coding": [
                {
                  "code": "18776-5",
                  "display": "Treatment Plan",
                  "system": "http://loinc.org"
                }
              ]
            },
            "mode": "snapshot"
          },
          {
            "id": "3bf22954-7e60-35a6-45d5-322ce2bae993",
            "title": "History of Present Illness",
            "text": {
              "status": "generated",
              "div": "<table><thead><tr><th>Narrative Text</th></tr></thead><tbody><tr><td>Headache</td></tr><tr><td>Brain tumor</td></tr><tr><td>Headache</td></tr></tbody></table>"
            },
            "code": {
              "coding": [
                {
                  "code": "10164-2",
                  "display": "History of Present Illness",
                  "system": "http://loinc.org"
                }
              ]
            },
            "mode": "snapshot"
          },
          {
            "id": "9f06fac1-cf69-4b39-ac51-fcf1e80aedf2",
            "title": "Reason For Visit",
            "text": {
              "status": "generated",
              "div": "<table><thead><tr><th>text</th></tr></thead><tbody><tr><td>HEADACHE BRAIN TUMOR</td></tr></tbody></table>"
            },
            "code": {
              "coding": [
                {
                  "code": "29299-5",
                  "display": "Reason For Visit",
                  "system": "http://loinc.org"
                }
              ]
            },
            "mode": "snapshot"
          },
          {
            "id": "edd6100d-fcef-07ce-10fb-2cc09042142a",
            "title": "Reportability Response Information Section",
            "text": {
              "status": "generated",
              "div": "<div xmlns=\"http://www.w3.org/1999/xhtml\">Reportability Response Information Section</div>"
            },
            "extension": [
              {
                "url": "http://hl7.org/fhir/us/ecr/StructureDefinition/rr-composition",
                "valueIdentifier": {
                  "use": "official",
                  "type": {
                    "coding": [
                      {
                        "code": "88085-6",
                        "display": "Reportability response report Document Public health",
                        "system": "http://loinc.org"
                      }
                    ]
                  },
                  "value": "d5b7773a-47e6-4b51-92da-9ca151181348"
                }
              },
              {
                "url": "http://hl7.org/fhir/us/ecr/StructureDefinition/rr-eicr-processing-status-extension",
                "valueCodeableConcept": {
                  "coding": [
                    {
                      "code": "RRVS19",
                      "display": "eICR processed",
                      "system": "urn:oid:2.16.840.1.114222.4.5.274"
                    }
                  ]
                }
              }
            ],
            "code": {
              "coding": [
                {
                  "code": "88085-6",
                  "display": "Reportability response report Document Public health",
                  "system": "http://loinc.org"
                }
              ]
            },
            "entry": [
              {
                "display": "Relevant Reportable Condition Observation - Coronavirus infection (disorder)",
                "reference": "Observation/3dfef8a1-dcd0-4013-ba05-858820261eb6"
              },
              {
                "display": "Relevant Reportable Condition Observation - Disease caused by severe acute respiratory syndrome coronavirus 2 (disorder)",
                "reference": "Observation/60951356-d352-40ed-b7b8-acba8d3e7a0c"
              },
              {
                "display": "Relevant Reportable Condition Observation - Malignant neoplastic disease (disorder)",
                "reference": "Observation/3d50b953-b99f-4711-a6dc-e6bc0371944e"
              },
              {
                "display": "Relevant Reportable Condition Observation - Disease caused by severe acute respiratory syndrome coronavirus 2 (disorder)",
                "reference": "Observation/f1be1853-710e-4f44-9ce4-2d6cfb9d04fc"
              }
            ]
          }
        ],
        "subject": {
          "reference": "Patient/e962c108-813b-41c5-9f7e-985de7265dcb"
        },
        "encounter": {
          "reference": "Encounter/c133cf39-a5b1-25b8-e3d0-6e9d84743da2"
        },
        "custodian": {
          "reference": "Organization/430c88de-09b3-f835-b008-e93f59ce7f15"
        },
        "author": [
          {
            "reference": "Practitioner/61bf6e4e-69e9-a596-fbff-d8042eb02b6d"
          }
        ]
      },
      "request": {
        "method": "PUT",
        "url": "Composition/df33f075-83a1-4d28-ba63-05bcc3339c21"
      }
    },
    {
      "fullUrl": "urn:uuid:c133cf39-a5b1-25b8-e3d0-6e9d84743da2",
      "resource": {
        "resourceType": "Encounter",
        "id": "c133cf39-a5b1-25b8-e3d0-6e9d84743da2",
        "status": "unknown",
        "class": {
          "code": "OBSENC",
          "display": "observation encounter",
          "system": "urn:oid:2.16.840.1.113883.5.4"
        },
        "identifier": [
          {
            "system": "urn:oid:2.16.840.1.113883",
            "value": "Encounter/64851396/_history/41"
          },
          {
            "system": "urn:oid:2.16.840.1.113883.17.8797.200",
            "value": "5004458898"
          }
        ],
        "period": {
          "start": "2022-04-13T08:36:00Z",
          "end": "2022-04-14T00:05:00Z"
        },
        "subject": {
          "reference": "Patient/e962c108-813b-41c5-9f7e-985de7265dcb"
        },
        "location": [
          {
            "id": "2.16.840.1.113883.4.6",
            "location": {
              "reference": "Location/9d62f0ba-2587-a556-b341-fb0eb65baecd",
              "display": "HHN-Henderson Hospital"
            },
            "extension": [
              {
                "url": "http://build.fhir.org/ig/HL7/case-reporting/StructureDefinition-us-ph-location-definitions.html#Location.type",
                "valueCodeableConcept": {
                  "coding": [
                    {
                      "code": "team",
                      "display": "Organizational team",
                      "system": "urn:oid:2.16.840.1.113883.4.642.3.414"
                    }
                  ]
                }
              }
            ]
          }
        ],
        "participant": [
          {
            "type": [
              {
                "coding": [
                  {
                    "system": "http://terminology.hl7.org/CodeSystem/v3-ParticipationType",
                    "code": "ATND"
                  }
                ]
              }
            ],
            "individual": {
              "reference": "Practitioner/61bf6e4e-69e9-a596-fbff-d8042eb02b6d"
            }
          }
        ],
        "meta": {
          "source": [
            "ecr"
          ]
        }
      },
      "request": {
        "method": "PUT",
        "url": "Encounter/c133cf39-a5b1-25b8-e3d0-6e9d84743da2"
      }
    },
    {
      "fullUrl": "urn:uuid:9d62f0ba-2587-a556-b341-fb0eb65baecd",
      "resource": {
        "resourceType": "Location",
        "id": "9d62f0ba-2587-a556-b341-fb0eb65baecd",
        "identifier": [
          {
            "value": "2.16.840.1.113883.4.6"
          }
        ],
        "name": "HHN-Henderson Hospital",
        "address": {
          "line": [
            "1050 W. Galleria Drive"
          ],
          "city": "Henderson",
          "state": "NV",
          "country": "USA",
          "postalCode": "89011"
        },
        "telecom": [
          {
            "system": "phone",
            "value": "(702)963-7000",
            "use": "work"
          },
          {
            "system": "phone",
            "value": "(702)963-7000",
            "use": "work"
          }
        ],
        "type": [
          {
            "coding": [
              {
                "code": "team",
                "display": "Organizational team",
                "system": "urn:oid:2.16.840.1.113883.4.642.3.414"
              }
            ]
          }
        ],
        "meta": {
          "source": [
            "ecr"
          ]
        }
      },
      "request": {
        "method": "PUT",
        "url": "Location/9d62f0ba-2587-a556-b341-fb0eb65baecd"
      }
    },
    {
      "fullUrl": "urn:uuid:61bf6e4e-69e9-a596-fbff-d8042eb02b6d",
      "resource": {
        "resourceType": "Practitioner",
        "id": "61bf6e4e-69e9-a596-fbff-d8042eb02b6d",
        "meta": {
          "profile": [
            "http://hl7.org/fhir/us/core/StructureDefinition/us-core-practitioner"
          ],
          "source": [
            "ecr"
          ]
        },
        "extension": [
          {
            "url": "http://hl7.org/fhir/StructureDefinition/_datatype",
            "valueString": "Responsible Party"
          }
        ],
        "identifier": [
          {
            "system": "http://hl7.org/fhir/sid/us-npi",
            "value": "1841601747"
          }
        ],
        "name": [
          {
            "use": "usual",
            "text": "HHN-Henderson Hospital"
          },
          {
            "family": "Huynh",
            "given": [
              "Kovin"
            ]
          }
        ],
        "address": [
          {
            "line": [
              "620 Shadow Lane"
            ],
            "city": "Las Vegas",
            "state": "NV",
            "country": "US",
            "postalCode": "89106"
          },
          {
            "line": [
              "1050 W. Galleria Drive"
            ],
            "city": "Henderson",
            "state": "NV",
            "country": "USA",
            "postalCode": "89011"
          }
        ],
        "telecom": [
          {
            "system": "phone",
            "value": "(702)963-7000",
            "use": "work"
          },
          {
            "system": "phone",
            "value": "(702)963-7000",
            "use": "work"
          },
          {
            "system": "phone",
            "value": "((70)2)8-00-5"
          }
        ]
      },
      "request": {
        "method": "PUT",
        "url": "Practitioner/61bf6e4e-69e9-a596-fbff-d8042eb02b6d"
      }
    },
    {
      "fullUrl": "urn:uuid:3e67c3ac-b134-5192-b597-eda67aedb171",
      "resource": {
        "resourceType": "Organization",
        "id": "3e67c3ac-b134-5192-b597-eda67aedb171",
        "meta": {
          "profile": [
            "http://hl7.org/fhir/us/ecr/StructureDefinition/rr-routing-entity-organization"
          ],
          "source": [
            "ecr"
          ]
        },
        "active": true,
        "type": [
          {
            "coding": [
              {
                "system": "urn:oid:2.16.840.1.114222.4.5.232",
                "code": "RR7",
                "display": "Routing Entity"
              }
            ]
          }
        ],
        "name": "Southern Nevada Health District (SNHD)"
      },
      "request": {
        "method": "PUT",
        "url": "Organization/3e67c3ac-b134-5192-b597-eda67aedb171"
      }
    },
    {
      "fullUrl": "urn:uuid:3dfef8a1-dcd0-4013-ba05-858820261eb6",
      "resource": {
        "resourceType": "Observation",
        "id": "3dfef8a1-dcd0-4013-ba05-858820261eb6",
        "meta": {
          "profile": [
            "http://hl7.org/fhir/us/ecr/StructureDefinition/rr-reportability-information-observation"
          ],
          "source": [
            "ecr"
          ]
        },
        "identifier": [
          {
            "system": "urn:ietf:rfc:3986",
            "value": "urn:uuid:3dfef8a1-dcd0-4013-ba05-858820261eb6"
          }
        ],
        "status": "final",
        "code": {
          "coding": [
            {
              "code": "64572001",
              "display": "Condition",
              "system": "http://snomed.info/sct"
            },
            {
              "code": "75323-6",
              "display": "Condition",
              "system": "http://loinc.org"
            }
          ]
        },
        "valueCodeableConcept": {
          "coding": [
            {
              "code": "186747009",
              "display": "Coronavirus infection (disorder)",
              "system": "http://snomed.info/sct"
            }
          ]
        },
        "extension": [
          {
            "url": "http://hl7.org/fhir/us/ecr/StructureDefinition/us-ph-determination-of-reportability-rule-extension",
            "valueString": "COVID-19 (as a diagnosis or active problem)"
          }
        ],
        "performer": [
          {
            "reference": "Organization/3e67c3ac-b134-5192-b597-eda67aedb171",
            "display": "Southern Nevada Health District (SNHD)"
          }
        ]
      },
      "request": {
        "method": "PUT",
        "url": "Observation/3dfef8a1-dcd0-4013-ba05-858820261eb6"
      }
    },
    {
      "fullUrl": "urn:uuid:c56015b1-ec87-3ccf-4f38-5a16943cf505",
      "resource": {
        "resourceType": "Organization",
        "id": "c56015b1-ec87-3ccf-4f38-5a16943cf505",
        "meta": {
          "profile": [
            "http://hl7.org/fhir/us/ecr/StructureDefinition/rr-routing-entity-organization"
          ],
          "source": [
            "ecr"
          ]
        },
        "active": true,
        "type": [
          {
            "coding": [
              {
                "system": "urn:oid:2.16.840.1.114222.4.5.232",
                "code": "RR7",
                "display": "Routing Entity"
              }
            ]
          }
        ],
        "name": "Los Angeles County Department of Public Health"
      },
      "request": {
        "method": "PUT",
        "url": "Organization/c56015b1-ec87-3ccf-4f38-5a16943cf505"
      }
    },
    {
      "fullUrl": "urn:uuid:60951356-d352-40ed-b7b8-acba8d3e7a0c",
      "resource": {
        "resourceType": "Observation",
        "id": "60951356-d352-40ed-b7b8-acba8d3e7a0c",
        "meta": {
          "profile": [
            "http://hl7.org/fhir/us/ecr/StructureDefinition/rr-reportability-information-observation"
          ],
          "source": [
            "ecr"
          ]
        },
        "identifier": [
          {
            "system": "urn:ietf:rfc:3986",
            "value": "urn:uuid:60951356-d352-40ed-b7b8-acba8d3e7a0c"
          }
        ],
        "status": "final",
        "code": {
          "coding": [
            {
              "code": "64572001",
              "display": "Condition",
              "system": "http://snomed.info/sct"
            },
            {
              "code": "75323-6",
              "display": "Condition",
              "system": "http://loinc.org"
            }
          ]
        },
        "valueCodeableConcept": {
          "coding": [
            {
              "code": "840539006",
              "display": "Disease caused by severe acute respiratory syndrome coronavirus 2 (disorder)",
              "system": "http://snomed.info/sct"
            }
          ]
        },
        "extension": [
          {
            "url": "http://hl7.org/fhir/us/ecr/StructureDefinition/us-ph-determination-of-reportability-rule-extension",
            "valueString": "COVID-19 (as a diagnosis or active problem)"
          }
        ],
        "performer": [
          {
            "reference": "Organization/c56015b1-ec87-3ccf-4f38-5a16943cf505",
            "display": "Los Angeles County Department of Public Health"
          }
        ]
      },
      "request": {
        "method": "PUT",
        "url": "Observation/60951356-d352-40ed-b7b8-acba8d3e7a0c"
      }
    },
    {
      "fullUrl": "urn:uuid:51c6d940-9b3f-5a47-3f39-28848156d9cd",
      "resource": {
        "resourceType": "Organization",
        "id": "51c6d940-9b3f-5a47-3f39-28848156d9cd",
        "meta": {
          "profile": [
            "http://hl7.org/fhir/us/ecr/StructureDefinition/rr-routing-entity-organization"
          ],
          "source": [
            "ecr"
          ]
        },
        "active": true,
        "type": [
          {
            "coding": [
              {
                "system": "urn:oid:2.16.840.1.114222.4.5.232",
                "code": "RR7",
                "display": "Routing Entity"
              }
            ]
          }
        ],
        "name": "Nevada State Health Division"
      },
      "request": {
        "method": "PUT",
        "url": "Organization/51c6d940-9b3f-5a47-3f39-28848156d9cd"
      }
    },
    {
      "fullUrl": "urn:uuid:3d50b953-b99f-4711-a6dc-e6bc0371944e",
      "resource": {
        "resourceType": "Observation",
        "id": "3d50b953-b99f-4711-a6dc-e6bc0371944e",
        "meta": {
          "profile": [
            "http://hl7.org/fhir/us/ecr/StructureDefinition/rr-reportability-information-observation"
          ],
          "source": [
            "ecr"
          ]
        },
        "identifier": [
          {
            "system": "urn:ietf:rfc:3986",
            "value": "urn:uuid:3d50b953-b99f-4711-a6dc-e6bc0371944e"
          }
        ],
        "status": "final",
        "code": {
          "coding": [
            {
              "code": "64572001",
              "display": "Condition",
              "system": "http://snomed.info/sct"
            },
            {
              "code": "75323-6",
              "display": "Condition",
              "system": "http://loinc.org"
            }
          ]
        },
        "valueCodeableConcept": {
          "coding": [
            {
              "code": "363346000",
              "display": "Malignant neoplastic disease (disorder)",
              "system": "http://snomed.info/sct"
            }
          ]
        },
        "extension": [
          {
            "url": "http://hl7.org/fhir/us/ecr/StructureDefinition/us-ph-determination-of-reportability-rule-extension",
            "valueString": "Malignant or in situ neoplasm, or a benign or borderline primary intracranial or central nervous system tumor (as a diagnosis or active problem)"
          }
        ],
        "performer": [
          {
            "reference": "Organization/51c6d940-9b3f-5a47-3f39-28848156d9cd",
            "display": "Nevada State Health Division"
          }
        ]
      },
      "request": {
        "method": "PUT",
        "url": "Observation/3d50b953-b99f-4711-a6dc-e6bc0371944e"
      }
    },
    {
      "fullUrl": "urn:uuid:f1be1853-710e-4f44-9ce4-2d6cfb9d04fc",
      "resource": {
        "resourceType": "Observation",
        "id": "f1be1853-710e-4f44-9ce4-2d6cfb9d04fc",
        "meta": {
          "profile": [
            "http://hl7.org/fhir/us/ecr/StructureDefinition/rr-reportability-information-observation"
          ],
          "source": [
            "ecr"
          ]
        },
        "identifier": [
          {
            "system": "urn:ietf:rfc:3986",
            "value": "urn:uuid:f1be1853-710e-4f44-9ce4-2d6cfb9d04fc"
          }
        ],
        "status": "final",
        "code": {
          "coding": [
            {
              "code": "64572001",
              "display": "Condition",
              "system": "http://snomed.info/sct"
            },
            {
              "code": "75323-6",
              "display": "Condition",
              "system": "http://loinc.org"
            }
          ]
        },
        "valueCodeableConcept": {
          "coding": [
            {
              "code": "840539006",
              "display": "Disease caused by severe acute respiratory syndrome coronavirus 2 (disorder)",
              "system": "http://snomed.info/sct"
            }
          ]
        },
        "extension": [
          {
            "url": "http://hl7.org/fhir/us/ecr/StructureDefinition/us-ph-determination-of-reportability-rule-extension",
            "valueString": "COVID-19 (as a diagnosis or active problem)"
          },
          {
            "url": "http://hl7.org/fhir/us/ecr/StructureDefinition/us-ph-determination-of-reportability-rule-extension",
            "valueString": "Hospitalized during encounter"
          }
        ],
        "performer": [
          {
            "reference": "Organization/51c6d940-9b3f-5a47-3f39-28848156d9cd",
            "display": "Nevada State Health Division"
          }
        ]
      },
      "request": {
        "method": "PUT",
        "url": "Observation/f1be1853-710e-4f44-9ce4-2d6cfb9d04fc"
      }
    },
    {
      "fullUrl": "urn:uuid:430c88de-09b3-f835-b008-e93f59ce7f15",
      "resource": {
        "resourceType": "Organization",
        "id": "430c88de-09b3-f835-b008-e93f59ce7f15",
        "identifier": [
          {
            "system": "http://hl7.org/fhir/sid/us-npi",
            "value": "1003281452"
          }
        ],
        "name": "HHN-Henderson Hospital",
        "address": [
          {
            "line": [
              "1050 W. Galleria Drive"
            ],
            "city": "Henderson",
            "state": "NV",
            "country": "USA",
            "postalCode": "89011"
          }
        ],
        "telecom": [
          {
            "system": "phone",
            "value": "(702)963-7000",
            "use": "work"
          }
        ],
        "meta": {
          "source": [
            "ecr"
          ]
        }
      },
      "request": {
        "method": "PUT",
        "url": "Organization/430c88de-09b3-f835-b008-e93f59ce7f15"
      }
    },
    {
      "fullUrl": "urn:uuid:e962c108-813b-41c5-9f7e-985de7265dcb",
      "resource": {
        "resourceType": "Patient",
        "id": "e962c108-813b-41c5-9f7e-985de7265dcb",
        "meta": {
          "profile": [
            "http://hl7.org/fhir/us/core/StructureDefinition/us-core-patient"
          ],
          "source": [
            "ecr"
          ]
        },
        "identifier": [
          {
            "system": "urn:oid:2.16.840.1.113883",
            "value": "Patient/34682681/_history/1181"
          },
          {
            "system": "urn:oid:2.16.840.1.113883.3.2063.100",
            "value": "63716237"
          },
          {
            "system": "urn:oid:2.16.840.1.113883.3.2062.100",
            "value": "6227227"
          },
          {
            "system": "urn:oid:2.16.840.1.113883.17.8797.100",
            "value": "8122469"
          },
          {
            "system": "urn:oid:2.16.840.1.113883.3.2053.100",
            "value": "35534012"
          },
          {
            "system": "urn:oid:2.16.840.1.113883.3.2061.100",
            "value": "5713666"
          }
        ],
        "name": [
          {
            "family": "WILLIS",
            "given": [
              "JASON",
              "ANDRE"
            ]
          }
        ],
        "birthDate": "1975-01-01",
        "gender": "male",
        "extension": [
          {
            "url": "http://hl7.org/fhir/us/core/StructureDefinition/us-core-race",
            "extension": [
              {
                "url": "ombCategory",
                "valueCoding": {
                  "code": "2054-5",
                  "display": "Black or African American"
                }
              },
              {
                "url": "text",
                "valueString": "Black or African American"
              }
            ]
          },
          {
            "url": "http://hl7.org/fhir/us/core/StructureDefinition/us-core-ethnicity",
            "extension": [
              {
                "url": "ombCategory",
                "valueCoding": {
                  "code": "2186-5",
                  "display": "Not Hispanic or Latino"
                }
              },
              {
                "url": "text",
                "valueString": "Not Hispanic or Latino"
              }
            ]
          },
          {
            "url": "http://hl7.org/fhir/us/core/StructureDefinition/us-core-birthsex",
            "extension": [
              {
                "url": "value",
                "valueCodeableConcept": {
                  "coding": [
                    {
                      "code": "M",
                      "display": "Male",
                      "system": "urn:oid:2.16.840.1.113883.5.1"
                    }
                  ]
                }
              }
            ]
          }
        ],
        "address": [
          {
            "line": [
              "4166 S WALL ST"
            ],
            "city": "LOS ANGELES",
            "state": "CA",
            "country": "US",
            "postalCode": "90011-1111"
          }
        ],
        "telecom": [
          {
            "system": "phone",
            "value": "(480)450-8877"
          },
          {
            "system": "phone",
            "value": "(702)844-3476",
            "use": "work"
          },
          {
            "system": "phone",
            "value": "(702)844-3476",
            "use": "home"
          },
          {
            "system": "email",
            "value": "JASONWILLISH2027@GMAIL.COM"
          }
        ],
        "communication": [
          {
            "language": {
              "coding": [
                {
                  "system": "urn:ietf:bcp:47",
                  "code": "en",
                  "display": "English"
                }
              ]
            }
          }
        ]
      },
      "request": {
        "method": "PUT",
        "url": "Patient/e962c108-813b-41c5-9f7e-985de7265dcb"
      }
    },
    {
      "fullUrl": "urn:uuid:8a1e6e06-4890-1aad-2803-c9d44d2666ee",
      "resource": {
        "resourceType": "DiagnosticReport",
        "id": "8a1e6e06-4890-1aad-2803-c9d44d2666ee",
        "identifier": [
          {
            "system": "urn:ietf:rfc:3986",
            "value": "urn:uuid:ae2440c6-52ff-4ed8-a2d0-0a75fd9b188e"
          }
        ],
        "status": "final",
        "code": {
          "coding": [
            {
              "code": "9830-1",
              "system": "http://loinc.org"
            }
          ]
        },
        "subject": {
          "reference": "Patient/e962c108-813b-41c5-9f7e-985de7265dcb"
        },
        "result": [
          {
            "reference": "Observation/669afe70-d46a-6c5a-bfaa-0462d90ba971"
          }
        ],
        "meta": {
          "source": [
            "ecr"
          ]
        }
      },
      "request": {
        "method": "PUT",
        "url": "DiagnosticReport/8a1e6e06-4890-1aad-2803-c9d44d2666ee"
      }
    },
    {
      "fullUrl": "urn:uuid:669afe70-d46a-6c5a-bfaa-0462d90ba971",
      "resource": {
        "resourceType": "Observation",
        "id": "669afe70-d46a-6c5a-bfaa-0462d90ba971",
        "meta": {
          "profile": [
            "http://hl7.org/fhir/us/core/StructureDefinition/us-core-observationresults"
          ],
          "source": [
            "ecr"
          ]
        },
        "identifier": [
          {
            "system": "urn:oid:2.16.840.1.113883",
            "value": "https://fhir-ehr.cerner.com/r4/da0b5d99-573c-4f5e-aaf6-8d39fa93d033/Observation/M-19270371715/_history/1"
          }
        ],
        "category": [
          {
            "coding": [
              {
                "system": "http://terminology.hl7.org/CodeSystem/observation-category",
                "code": "laboratory"
              }
            ]
          }
        ],
        "status": "final",
        "code": {
          "coding": [
            {
              "code": "9830-1",
              "system": "http://loinc.org"
            }
          ]
        },
        "effectiveDateTime": "2022-04-13T12:38:00Z",
        "valueQuantity": {
          "value": 4,
          "unit": "null"
        },
        "interpretation": [
          {
            "coding": [
              {
                "code": "N",
                "display": "Normal",
                "system": "http://terminology.hl7.org/CodeSystem/v3-ObservationInterpretation"
              }
            ]
          }
        ],
        "subject": {
          "reference": "Patient/e962c108-813b-41c5-9f7e-985de7265dcb"
        }
      },
      "request": {
        "method": "PUT",
        "url": "Observation/669afe70-d46a-6c5a-bfaa-0462d90ba971"
      }
    },
    {
      "fullUrl": "urn:uuid:c24c904d-473d-83df-06aa-75ebff7dd20f",
      "resource": {
        "resourceType": "DiagnosticReport",
        "id": "c24c904d-473d-83df-06aa-75ebff7dd20f",
        "identifier": [
          {
            "system": "urn:ietf:rfc:3986",
            "value": "urn:uuid:253bf5ee-e85a-4e33-9389-0b66c5366fc7"
          }
        ],
        "status": "final",
        "code": {
          "coding": [
            {
              "code": "2777-1",
              "system": "http://loinc.org"
            }
          ]
        },
        "subject": {
          "reference": "Patient/e962c108-813b-41c5-9f7e-985de7265dcb"
        },
        "result": [
          {
            "reference": "Observation/72cffbc2-4943-2898-0594-ee8d47b84782"
          }
        ],
        "meta": {
          "source": [
            "ecr"
          ]
        }
      },
      "request": {
        "method": "PUT",
        "url": "DiagnosticReport/c24c904d-473d-83df-06aa-75ebff7dd20f"
      }
    },
    {
      "fullUrl": "urn:uuid:72cffbc2-4943-2898-0594-ee8d47b84782",
      "resource": {
        "resourceType": "Observation",
        "id": "72cffbc2-4943-2898-0594-ee8d47b84782",
        "meta": {
          "profile": [
            "http://hl7.org/fhir/us/core/StructureDefinition/us-core-observationresults"
          ],
          "source": [
            "ecr"
          ]
        },
        "identifier": [
          {
            "system": "urn:oid:2.16.840.1.113883",
            "value": "https://fhir-ehr.cerner.com/r4/da0b5d99-573c-4f5e-aaf6-8d39fa93d033/Observation/M-19270005457/_history/1"
          }
        ],
        "category": [
          {
            "coding": [
              {
                "system": "http://terminology.hl7.org/CodeSystem/observation-category",
                "code": "laboratory"
              }
            ]
          }
        ],
        "status": "final",
        "code": {
          "coding": [
            {
              "code": "2777-1",
              "system": "http://loinc.org"
            }
          ]
        },
        "effectiveDateTime": "2022-04-13T12:38:00Z",
        "valueQuantity": {
          "value": 4.1,
          "unit": "mg/dL"
        },
        "interpretation": [
          {
            "coding": [
              {
                "code": "N",
                "display": "Normal",
                "system": "http://terminology.hl7.org/CodeSystem/v3-ObservationInterpretation"
              }
            ]
          }
        ],
        "subject": {
          "reference": "Patient/e962c108-813b-41c5-9f7e-985de7265dcb"
        }
      },
      "request": {
        "method": "PUT",
        "url": "Observation/72cffbc2-4943-2898-0594-ee8d47b84782"
      }
    },
    {
      "fullUrl": "urn:uuid:8eecb6d4-9e6f-7ed5-51ce-74bf7a239e80",
      "resource": {
        "resourceType": "DiagnosticReport",
        "id": "8eecb6d4-9e6f-7ed5-51ce-74bf7a239e80",
        "identifier": [
          {
            "system": "urn:ietf:rfc:3986",
            "value": "urn:uuid:d5cad7fe-f1f8-4b71-8b37-2fd30a827920"
          }
        ],
        "status": "final",
        "code": {
          "coding": [
            {
              "code": "13458-5",
              "system": "http://loinc.org"
            }
          ]
        },
        "subject": {
          "reference": "Patient/e962c108-813b-41c5-9f7e-985de7265dcb"
        },
        "result": [
          {
            "reference": "Observation/25b26309-ce1b-541b-2ad0-b4037f1c2ed2"
          }
        ],
        "meta": {
          "source": [
            "ecr"
          ]
        }
      },
      "request": {
        "method": "PUT",
        "url": "DiagnosticReport/8eecb6d4-9e6f-7ed5-51ce-74bf7a239e80"
      }
    },
    {
      "fullUrl": "urn:uuid:25b26309-ce1b-541b-2ad0-b4037f1c2ed2",
      "resource": {
        "resourceType": "Observation",
        "id": "25b26309-ce1b-541b-2ad0-b4037f1c2ed2",
        "meta": {
          "profile": [
            "http://hl7.org/fhir/us/core/StructureDefinition/us-core-observationresults"
          ],
          "source": [
            "ecr"
          ]
        },
        "identifier": [
          {
            "system": "urn:oid:2.16.840.1.113883",
            "value": "https://fhir-ehr.cerner.com/r4/da0b5d99-573c-4f5e-aaf6-8d39fa93d033/Observation/M-19270371713/_history/1"
          }
        ],
        "category": [
          {
            "coding": [
              {
                "system": "http://terminology.hl7.org/CodeSystem/observation-category",
                "code": "laboratory"
              }
            ]
          }
        ],
        "status": "final",
        "code": {
          "coding": [
            {
              "code": "13458-5",
              "system": "http://loinc.org"
            }
          ]
        },
        "effectiveDateTime": "2022-04-13T12:38:00Z",
        "valueQuantity": {
          "value": 34.0,
          "unit": "mg/dL"
        },
        "subject": {
          "reference": "Patient/e962c108-813b-41c5-9f7e-985de7265dcb"
        }
      },
      "request": {
        "method": "PUT",
        "url": "Observation/25b26309-ce1b-541b-2ad0-b4037f1c2ed2"
      }
    },
    {
      "fullUrl": "urn:uuid:7c504887-02be-e978-7524-d81036c5eba5",
      "resource": {
        "resourceType": "DiagnosticReport",
        "id": "7c504887-02be-e978-7524-d81036c5eba5",
        "identifier": [
          {
            "system": "urn:ietf:rfc:3986",
            "value": "urn:uuid:f4e562ca-c444-4606-b5fe-c4d1edae1a84"
          }
        ],
        "status": "final",
        "code": {
          "coding": [
            {
              "code": "18262-6",
              "system": "http://loinc.org"
            }
          ]
        },
        "subject": {
          "reference": "Patient/e962c108-813b-41c5-9f7e-985de7265dcb"
        },
        "result": [
          {
            "reference": "Observation/d500db57-e204-1544-45d3-5807c1f361da"
          }
        ],
        "meta": {
          "source": [
            "ecr"
          ]
        }
      },
      "request": {
        "method": "PUT",
        "url": "DiagnosticReport/7c504887-02be-e978-7524-d81036c5eba5"
      }
    },
    {
      "fullUrl": "urn:uuid:d500db57-e204-1544-45d3-5807c1f361da",
      "resource": {
        "resourceType": "Observation",
        "id": "d500db57-e204-1544-45d3-5807c1f361da",
        "meta": {
          "profile": [
            "http://hl7.org/fhir/us/core/StructureDefinition/us-core-observationresults"
          ],
          "source": [
            "ecr"
          ]
        },
        "identifier": [
          {
            "system": "urn:oid:2.16.840.1.113883",
            "value": "https://fhir-ehr.cerner.com/r4/da0b5d99-573c-4f5e-aaf6-8d39fa93d033/Observation/M-19270371709/_history/1"
          }
        ],
        "category": [
          {
            "coding": [
              {
                "system": "http://terminology.hl7.org/CodeSystem/observation-category",
                "code": "laboratory"
              }
            ]
          }
        ],
        "status": "final",
        "code": {
          "coding": [
            {
              "code": "18262-6",
              "system": "http://loinc.org"
            }
          ]
        },
        "effectiveDateTime": "2022-04-13T12:38:00Z",
        "valueQuantity": {
          "value": 81,
          "unit": "mg/dL"
        },
        "interpretation": [
          {
            "coding": [
              {
                "code": "N",
                "display": "Normal",
                "system": "http://terminology.hl7.org/CodeSystem/v3-ObservationInterpretation"
              }
            ]
          }
        ],
        "subject": {
          "reference": "Patient/e962c108-813b-41c5-9f7e-985de7265dcb"
        }
      },
      "request": {
        "method": "PUT",
        "url": "Observation/d500db57-e204-1544-45d3-5807c1f361da"
      }
    },
    {
      "fullUrl": "urn:uuid:7cb041ad-2efe-d4ac-89a4-9cb815d47a76",
      "resource": {
        "resourceType": "DiagnosticReport",
        "id": "7cb041ad-2efe-d4ac-89a4-9cb815d47a76",
        "identifier": [
          {
            "system": "urn:ietf:rfc:3986",
            "value": "urn:uuid:c75c0d9e-144b-49a7-bdf6-09b2ae3d48ea"
          }
        ],
        "status": "final",
        "code": {
          "coding": [
            {
              "code": "2571-8",
              "system": "http://loinc.org"
            }
          ]
        },
        "subject": {
          "reference": "Patient/e962c108-813b-41c5-9f7e-985de7265dcb"
        },
        "result": [
          {
            "reference": "Observation/24667cf4-bccd-7cb6-c513-1757c3d3df56"
          }
        ],
        "meta": {
          "source": [
            "ecr"
          ]
        }
      },
      "request": {
        "method": "PUT",
        "url": "DiagnosticReport/7cb041ad-2efe-d4ac-89a4-9cb815d47a76"
      }
    },
    {
      "fullUrl": "urn:uuid:24667cf4-bccd-7cb6-c513-1757c3d3df56",
      "resource": {
        "resourceType": "Observation",
        "id": "24667cf4-bccd-7cb6-c513-1757c3d3df56",
        "meta": {
          "profile": [
            "http://hl7.org/fhir/us/core/StructureDefinition/us-core-observationresults"
          ],
          "source": [
            "ecr"
          ]
        },
        "identifier": [
          {
            "system": "urn:oid:2.16.840.1.113883",
            "value": "https://fhir-ehr.cerner.com/r4/da0b5d99-573c-4f5e-aaf6-8d39fa93d033/Observation/M-19270371705/_history/1"
          }
        ],
        "category": [
          {
            "coding": [
              {
                "system": "http://terminology.hl7.org/CodeSystem/observation-category",
                "code": "laboratory"
              }
            ]
          }
        ],
        "status": "final",
        "code": {
          "coding": [
            {
              "code": "2571-8",
              "system": "http://loinc.org"
            }
          ]
        },
        "effectiveDateTime": "2022-04-13T12:38:00Z",
        "valueQuantity": {
          "value": 168,
          "unit": "mg/dL"
        },
        "interpretation": [
          {
            "coding": [
              {
                "code": "H",
                "display": "High",
                "system": "http://terminology.hl7.org/CodeSystem/v3-ObservationInterpretation"
              }
            ]
          }
        ],
        "subject": {
          "reference": "Patient/e962c108-813b-41c5-9f7e-985de7265dcb"
        }
      },
      "request": {
        "method": "PUT",
        "url": "Observation/24667cf4-bccd-7cb6-c513-1757c3d3df56"
      }
    },
    {
      "fullUrl": "urn:uuid:76cc637a-723c-64a4-59c9-425d936dd56c",
      "resource": {
        "resourceType": "DiagnosticReport",
        "id": "76cc637a-723c-64a4-59c9-425d936dd56c",
        "identifier": [
          {
            "system": "urn:ietf:rfc:3986",
            "value": "urn:uuid:f653c0a2-3259-494c-91d9-fa86b8e9b8e0"
          }
        ],
        "status": "final",
        "code": {
          "coding": [
            {
              "code": "14979-9",
              "system": "http://loinc.org"
            }
          ]
        },
        "subject": {
          "reference": "Patient/e962c108-813b-41c5-9f7e-985de7265dcb"
        },
        "result": [
          {
            "reference": "Observation/5659d25c-4bc9-f555-dea4-9d3b30666798"
          }
        ],
        "meta": {
          "source": [
            "ecr"
          ]
        }
      },
      "request": {
        "method": "PUT",
        "url": "DiagnosticReport/76cc637a-723c-64a4-59c9-425d936dd56c"
      }
    },
    {
      "fullUrl": "urn:uuid:5659d25c-4bc9-f555-dea4-9d3b30666798",
      "resource": {
        "resourceType": "Observation",
        "id": "5659d25c-4bc9-f555-dea4-9d3b30666798",
        "meta": {
          "profile": [
            "http://hl7.org/fhir/us/core/StructureDefinition/us-core-observationresults"
          ],
          "source": [
            "ecr"
          ]
        },
        "identifier": [
          {
            "system": "urn:oid:2.16.840.1.113883",
            "value": "https://fhir-ehr.cerner.com/r4/da0b5d99-573c-4f5e-aaf6-8d39fa93d033/Observation/M-19270007218/_history/1"
          }
        ],
        "category": [
          {
            "coding": [
              {
                "system": "http://terminology.hl7.org/CodeSystem/observation-category",
                "code": "laboratory"
              }
            ]
          }
        ],
        "status": "final",
        "code": {
          "coding": [
            {
              "code": "14979-9",
              "system": "http://loinc.org"
            }
          ]
        },
        "effectiveDateTime": "2022-04-13T12:38:00Z",
        "valueQuantity": {
          "value": 31,
          "unit": "Seconds"
        },
        "interpretation": [
          {
            "coding": [
              {
                "code": "N",
                "display": "Normal",
                "system": "http://terminology.hl7.org/CodeSystem/v3-ObservationInterpretation"
              }
            ]
          }
        ],
        "subject": {
          "reference": "Patient/e962c108-813b-41c5-9f7e-985de7265dcb"
        }
      },
      "request": {
        "method": "PUT",
        "url": "Observation/5659d25c-4bc9-f555-dea4-9d3b30666798"
      }
    },
    {
      "fullUrl": "urn:uuid:e7da7270-2ee3-a196-8449-5d65888a7e2f",
      "resource": {
        "resourceType": "DiagnosticReport",
        "id": "e7da7270-2ee3-a196-8449-5d65888a7e2f",
        "identifier": [
          {
            "system": "urn:ietf:rfc:3986",
            "value": "urn:uuid:28ca7ace-e38e-499d-a498-d026867122ef"
          }
        ],
        "status": "final",
        "code": {
          "coding": [
            {
              "code": "5902-2",
              "system": "http://loinc.org"
            }
          ]
        },
        "subject": {
          "reference": "Patient/e962c108-813b-41c5-9f7e-985de7265dcb"
        },
        "result": [
          {
            "reference": "Observation/b7ef76fe-e4e3-198b-2f9a-d794724e2409"
          }
        ],
        "meta": {
          "source": [
            "ecr"
          ]
        }
      },
      "request": {
        "method": "PUT",
        "url": "DiagnosticReport/e7da7270-2ee3-a196-8449-5d65888a7e2f"
      }
    },
    {
      "fullUrl": "urn:uuid:b7ef76fe-e4e3-198b-2f9a-d794724e2409",
      "resource": {
        "resourceType": "Observation",
        "id": "b7ef76fe-e4e3-198b-2f9a-d794724e2409",
        "meta": {
          "profile": [
            "http://hl7.org/fhir/us/core/StructureDefinition/us-core-observationresults"
          ],
          "source": [
            "ecr"
          ]
        },
        "identifier": [
          {
            "system": "urn:oid:2.16.840.1.113883",
            "value": "https://fhir-ehr.cerner.com/r4/da0b5d99-573c-4f5e-aaf6-8d39fa93d033/Observation/M-19270007196/_history/1"
          }
        ],
        "category": [
          {
            "coding": [
              {
                "system": "http://terminology.hl7.org/CodeSystem/observation-category",
                "code": "laboratory"
              }
            ]
          }
        ],
        "status": "final",
        "code": {
          "coding": [
            {
              "code": "5902-2",
              "system": "http://loinc.org"
            }
          ]
        },
        "effectiveDateTime": "2022-04-13T12:38:00Z",
        "valueQuantity": {
          "value": 10.6,
          "unit": "Seconds"
        },
        "interpretation": [
          {
            "coding": [
              {
                "code": "N",
                "display": "Normal",
                "system": "http://terminology.hl7.org/CodeSystem/v3-ObservationInterpretation"
              }
            ]
          }
        ],
        "subject": {
          "reference": "Patient/e962c108-813b-41c5-9f7e-985de7265dcb"
        }
      },
      "request": {
        "method": "PUT",
        "url": "Observation/b7ef76fe-e4e3-198b-2f9a-d794724e2409"
      }
    },
    {
      "fullUrl": "urn:uuid:746de11e-7536-aec6-319c-dbeefbe00425",
      "resource": {
        "resourceType": "DiagnosticReport",
        "id": "746de11e-7536-aec6-319c-dbeefbe00425",
        "identifier": [
          {
            "system": "urn:ietf:rfc:3986",
            "value": "urn:uuid:54ead98f-4365-417d-80b2-ba75211c28f0"
          }
        ],
        "status": "final",
        "code": {
          "coding": [
            {
              "code": "19123-9",
              "system": "http://loinc.org"
            }
          ]
        },
        "subject": {
          "reference": "Patient/e962c108-813b-41c5-9f7e-985de7265dcb"
        },
        "result": [
          {
            "reference": "Observation/aec5ef09-b2e9-f0d2-6c16-a68dfce76c33"
          }
        ],
        "meta": {
          "source": [
            "ecr"
          ]
        }
      },
      "request": {
        "method": "PUT",
        "url": "DiagnosticReport/746de11e-7536-aec6-319c-dbeefbe00425"
      }
    },
    {
      "fullUrl": "urn:uuid:aec5ef09-b2e9-f0d2-6c16-a68dfce76c33",
      "resource": {
        "resourceType": "Observation",
        "id": "aec5ef09-b2e9-f0d2-6c16-a68dfce76c33",
        "meta": {
          "profile": [
            "http://hl7.org/fhir/us/core/StructureDefinition/us-core-observationresults"
          ],
          "source": [
            "ecr"
          ]
        },
        "identifier": [
          {
            "system": "urn:oid:2.16.840.1.113883",
            "value": "https://fhir-ehr.cerner.com/r4/da0b5d99-573c-4f5e-aaf6-8d39fa93d033/Observation/M-19270005427/_history/1"
          }
        ],
        "category": [
          {
            "coding": [
              {
                "system": "http://terminology.hl7.org/CodeSystem/observation-category",
                "code": "laboratory"
              }
            ]
          }
        ],
        "status": "final",
        "code": {
          "coding": [
            {
              "code": "19123-9",
              "system": "http://loinc.org"
            }
          ]
        },
        "effectiveDateTime": "2022-04-13T12:38:00Z",
        "valueQuantity": {
          "value": 1.9,
          "unit": "mg/dL"
        },
        "interpretation": [
          {
            "coding": [
              {
                "code": "N",
                "display": "Normal",
                "system": "http://terminology.hl7.org/CodeSystem/v3-ObservationInterpretation"
              }
            ]
          }
        ],
        "subject": {
          "reference": "Patient/e962c108-813b-41c5-9f7e-985de7265dcb"
        }
      },
      "request": {
        "method": "PUT",
        "url": "Observation/aec5ef09-b2e9-f0d2-6c16-a68dfce76c33"
      }
    },
    {
      "fullUrl": "urn:uuid:05929a6d-8f09-7908-46db-373c44684b68",
      "resource": {
        "resourceType": "DiagnosticReport",
        "id": "05929a6d-8f09-7908-46db-373c44684b68",
        "identifier": [
          {
            "system": "urn:ietf:rfc:3986",
            "value": "urn:uuid:bda78450-4c3e-4886-b4be-70de864f3f04"
          }
        ],
        "status": "final",
        "code": {
          "coding": [
            {
              "code": "2085-9",
              "system": "http://loinc.org"
            }
          ]
        },
        "subject": {
          "reference": "Patient/e962c108-813b-41c5-9f7e-985de7265dcb"
        },
        "result": [
          {
            "reference": "Observation/d6b3d327-931e-9310-be54-6e5c0ac9369c"
          }
        ],
        "meta": {
          "source": [
            "ecr"
          ]
        }
      },
      "request": {
        "method": "PUT",
        "url": "DiagnosticReport/05929a6d-8f09-7908-46db-373c44684b68"
      }
    },
    {
      "fullUrl": "urn:uuid:d6b3d327-931e-9310-be54-6e5c0ac9369c",
      "resource": {
        "resourceType": "Observation",
        "id": "d6b3d327-931e-9310-be54-6e5c0ac9369c",
        "meta": {
          "profile": [
            "http://hl7.org/fhir/us/core/StructureDefinition/us-core-observationresults"
          ],
          "source": [
            "ecr"
          ]
        },
        "identifier": [
          {
            "system": "urn:oid:2.16.840.1.113883",
            "value": "https://fhir-ehr.cerner.com/r4/da0b5d99-573c-4f5e-aaf6-8d39fa93d033/Observation/M-19270371711/_history/1"
          }
        ],
        "category": [
          {
            "coding": [
              {
                "system": "http://terminology.hl7.org/CodeSystem/observation-category",
                "code": "laboratory"
              }
            ]
          }
        ],
        "status": "final",
        "code": {
          "coding": [
            {
              "code": "2085-9",
              "system": "http://loinc.org"
            }
          ]
        },
        "effectiveDateTime": "2022-04-13T12:38:00Z",
        "valueQuantity": {
          "value": 36,
          "unit": "mg/dL"
        },
        "interpretation": [
          {
            "coding": [
              {
                "code": "L",
                "display": "Low",
                "system": "http://terminology.hl7.org/CodeSystem/v3-ObservationInterpretation"
              }
            ]
          }
        ],
        "subject": {
          "reference": "Patient/e962c108-813b-41c5-9f7e-985de7265dcb"
        }
      },
      "request": {
        "method": "PUT",
        "url": "Observation/d6b3d327-931e-9310-be54-6e5c0ac9369c"
      }
    },
    {
      "fullUrl": "urn:uuid:fad23f42-3cf3-9e13-493d-9684a44d1a36",
      "resource": {
        "resourceType": "DiagnosticReport",
        "id": "fad23f42-3cf3-9e13-493d-9684a44d1a36",
        "identifier": [
          {
            "system": "urn:ietf:rfc:3986",
            "value": "urn:uuid:f29635f2-a747-4eb5-97ce-85fae13d3fc1"
          }
        ],
        "status": "final",
        "code": {
          "coding": [
            {
              "code": "2093-3",
              "system": "http://loinc.org"
            }
          ]
        },
        "subject": {
          "reference": "Patient/e962c108-813b-41c5-9f7e-985de7265dcb"
        },
        "result": [
          {
            "reference": "Observation/a944fa13-5e3c-f119-b12e-f15d1c8ec410"
          }
        ],
        "meta": {
          "source": [
            "ecr"
          ]
        }
      },
      "request": {
        "method": "PUT",
        "url": "DiagnosticReport/fad23f42-3cf3-9e13-493d-9684a44d1a36"
      }
    },
    {
      "fullUrl": "urn:uuid:a944fa13-5e3c-f119-b12e-f15d1c8ec410",
      "resource": {
        "resourceType": "Observation",
        "id": "a944fa13-5e3c-f119-b12e-f15d1c8ec410",
        "meta": {
          "profile": [
            "http://hl7.org/fhir/us/core/StructureDefinition/us-core-observationresults"
          ],
          "source": [
            "ecr"
          ]
        },
        "identifier": [
          {
            "system": "urn:oid:2.16.840.1.113883",
            "value": "https://fhir-ehr.cerner.com/r4/da0b5d99-573c-4f5e-aaf6-8d39fa93d033/Observation/M-19270371703/_history/1"
          }
        ],
        "category": [
          {
            "coding": [
              {
                "system": "http://terminology.hl7.org/CodeSystem/observation-category",
                "code": "laboratory"
              }
            ]
          }
        ],
        "status": "final",
        "code": {
          "coding": [
            {
              "code": "2093-3",
              "system": "http://loinc.org"
            }
          ]
        },
        "effectiveDateTime": "2022-04-13T12:38:00Z",
        "valueQuantity": {
          "value": 129,
          "unit": "mg/dL"
        },
        "interpretation": [
          {
            "coding": [
              {
                "code": "N",
                "display": "Normal",
                "system": "http://terminology.hl7.org/CodeSystem/v3-ObservationInterpretation"
              }
            ]
          }
        ],
        "subject": {
          "reference": "Patient/e962c108-813b-41c5-9f7e-985de7265dcb"
        }
      },
      "request": {
        "method": "PUT",
        "url": "Observation/a944fa13-5e3c-f119-b12e-f15d1c8ec410"
      }
    },
    {
      "fullUrl": "urn:uuid:7d7b4b74-7081-1abb-8031-82180a1b700e",
      "resource": {
        "resourceType": "DiagnosticReport",
        "id": "7d7b4b74-7081-1abb-8031-82180a1b700e",
        "identifier": [
          {
            "system": "urn:ietf:rfc:3986",
            "value": "urn:uuid:9bfa15b1-9e7c-44b2-8a6a-b2f7ef426cfa"
          }
        ],
        "status": "final",
        "code": {
          "coding": [
            {
              "code": "6301-6",
              "system": "http://loinc.org"
            }
          ]
        },
        "subject": {
          "reference": "Patient/e962c108-813b-41c5-9f7e-985de7265dcb"
        },
        "result": [
          {
            "reference": "Observation/9933511b-0922-5c70-fede-3fcb109c0b5d"
          }
        ],
        "meta": {
          "source": [
            "ecr"
          ]
        }
      },
      "request": {
        "method": "PUT",
        "url": "DiagnosticReport/7d7b4b74-7081-1abb-8031-82180a1b700e"
      }
    },
    {
      "fullUrl": "urn:uuid:9933511b-0922-5c70-fede-3fcb109c0b5d",
      "resource": {
        "resourceType": "Observation",
        "id": "9933511b-0922-5c70-fede-3fcb109c0b5d",
        "meta": {
          "profile": [
            "http://hl7.org/fhir/us/core/StructureDefinition/us-core-observationresults"
          ],
          "source": [
            "ecr"
          ]
        },
        "identifier": [
          {
            "system": "urn:oid:2.16.840.1.113883",
            "value": "https://fhir-ehr.cerner.com/r4/da0b5d99-573c-4f5e-aaf6-8d39fa93d033/Observation/M-19270007202/_history/1"
          }
        ],
        "category": [
          {
            "coding": [
              {
                "system": "http://terminology.hl7.org/CodeSystem/observation-category",
                "code": "laboratory"
              }
            ]
          }
        ],
        "status": "final",
        "code": {
          "coding": [
            {
              "code": "6301-6",
              "system": "http://loinc.org"
            }
          ]
        },
        "effectiveDateTime": "2022-04-13T12:38:00Z",
        "valueQuantity": {
          "value": 1.0,
          "unit": "null"
        },
        "interpretation": [
          {
            "coding": [
              {
                "code": "N",
                "display": "Normal",
                "system": "http://terminology.hl7.org/CodeSystem/v3-ObservationInterpretation"
              }
            ]
          }
        ],
        "subject": {
          "reference": "Patient/e962c108-813b-41c5-9f7e-985de7265dcb"
        }
      },
      "request": {
        "method": "PUT",
        "url": "Observation/9933511b-0922-5c70-fede-3fcb109c0b5d"
      }
    },
    {
      "fullUrl": "urn:uuid:cea48f13-e49f-cb57-31e5-268c3961e6cb",
      "resource": {
        "resourceType": "DiagnosticReport",
        "id": "cea48f13-e49f-cb57-31e5-268c3961e6cb",
        "identifier": [
          {
            "system": "urn:ietf:rfc:3986",
            "value": "urn:uuid:20ce4355-1072-4af0-939b-891d76603b8e"
          }
        ],
        "status": "final",
        "code": {
          "coding": [
            {
              "code": "35592-5",
              "system": "http://loinc.org"
            }
          ]
        },
        "subject": {
          "reference": "Patient/e962c108-813b-41c5-9f7e-985de7265dcb"
        },
        "result": [
          {
            "reference": "Observation/e0aa51dc-77f9-41b2-e379-d0dd6d532e37"
          }
        ],
        "meta": {
          "source": [
            "ecr"
          ]
        }
      },
      "request": {
        "method": "PUT",
        "url": "DiagnosticReport/cea48f13-e49f-cb57-31e5-268c3961e6cb"
      }
    },
    {
      "fullUrl": "urn:uuid:e0aa51dc-77f9-41b2-e379-d0dd6d532e37",
      "resource": {
        "resourceType": "Observation",
        "id": "e0aa51dc-77f9-41b2-e379-d0dd6d532e37",
        "meta": {
          "profile": [
            "http://hl7.org/fhir/us/core/StructureDefinition/us-core-observationresults"
          ],
          "source": [
            "ecr"
          ]
        },
        "identifier": [
          {
            "system": "urn:oid:2.16.840.1.113883",
            "value": "https://fhir-ehr.cerner.com/r4/da0b5d99-573c-4f5e-aaf6-8d39fa93d033/Observation/M-19269566162/_history/1"
          }
        ],
        "category": [
          {
            "coding": [
              {
                "system": "http://terminology.hl7.org/CodeSystem/observation-category",
                "code": "laboratory"
              }
            ]
          }
        ],
        "status": "final",
        "code": {
          "coding": [
            {
              "code": "35592-5",
              "system": "http://loinc.org"
            }
          ]
        },
        "effectiveDateTime": "2022-04-13T10:34:02Z",
        "valueQuantity": {
          "value": 104.42,
          "unit": "mL/min"
        },
        "subject": {
          "reference": "Patient/e962c108-813b-41c5-9f7e-985de7265dcb"
        }
      },
      "request": {
        "method": "PUT",
        "url": "Observation/e0aa51dc-77f9-41b2-e379-d0dd6d532e37"
      }
    },
    {
      "fullUrl": "urn:uuid:37a34a4c-c7a9-7200-6a33-57a2fcf78d24",
      "resource": {
        "resourceType": "DiagnosticReport",
        "id": "37a34a4c-c7a9-7200-6a33-57a2fcf78d24",
        "identifier": [
          {
            "system": "urn:ietf:rfc:3986",
            "value": "urn:uuid:84155d39-2bf9-4952-944e-6f0628ed0977"
          }
        ],
        "status": "final",
        "code": {
          "coding": [
            {
              "code": "50384-7",
              "system": "http://loinc.org"
            }
          ]
        },
        "subject": {
          "reference": "Patient/e962c108-813b-41c5-9f7e-985de7265dcb"
        },
        "result": [
          {
            "reference": "Observation/2995211e-b63a-04e0-291b-8b03d6e7209a"
          }
        ],
        "meta": {
          "source": [
            "ecr"
          ]
        }
      },
      "request": {
        "method": "PUT",
        "url": "DiagnosticReport/37a34a4c-c7a9-7200-6a33-57a2fcf78d24"
      }
    },
    {
      "fullUrl": "urn:uuid:2995211e-b63a-04e0-291b-8b03d6e7209a",
      "resource": {
        "resourceType": "Observation",
        "id": "2995211e-b63a-04e0-291b-8b03d6e7209a",
        "meta": {
          "profile": [
            "http://hl7.org/fhir/us/core/StructureDefinition/us-core-observationresults"
          ],
          "source": [
            "ecr"
          ]
        },
        "identifier": [
          {
            "system": "urn:oid:2.16.840.1.113883",
            "value": "https://fhir-ehr.cerner.com/r4/da0b5d99-573c-4f5e-aaf6-8d39fa93d033/Observation/M-19269550444/_history/1"
          }
        ],
        "category": [
          {
            "coding": [
              {
                "system": "http://terminology.hl7.org/CodeSystem/observation-category",
                "code": "laboratory"
              }
            ]
          }
        ],
        "status": "final",
        "code": {
          "coding": [
            {
              "code": "50384-7",
              "system": "http://loinc.org"
            }
          ]
        },
        "effectiveDateTime": "2022-04-13T09:46:00Z",
        "valueString": "Not Reported",
        "subject": {
          "reference": "Patient/e962c108-813b-41c5-9f7e-985de7265dcb"
        }
      },
      "request": {
        "method": "PUT",
        "url": "Observation/2995211e-b63a-04e0-291b-8b03d6e7209a"
      }
    },
    {
      "fullUrl": "urn:uuid:8ee3b8f2-c041-4729-ebf1-38d85519ee2c",
      "resource": {
        "resourceType": "DiagnosticReport",
        "id": "8ee3b8f2-c041-4729-ebf1-38d85519ee2c",
        "identifier": [
          {
            "system": "urn:ietf:rfc:3986",
            "value": "urn:uuid:cf5421d8-7ccb-47ec-8a64-88ce4db4ce7a"
          }
        ],
        "status": "final",
        "code": {
          "coding": [
            {
              "code": "18182-6",
              "system": "http://loinc.org"
            }
          ]
        },
        "subject": {
          "reference": "Patient/e962c108-813b-41c5-9f7e-985de7265dcb"
        },
        "result": [
          {
            "reference": "Observation/041d93a8-0ae4-7b9c-e1a6-15f8c7c6abdd"
          }
        ],
        "meta": {
          "source": [
            "ecr"
          ]
        }
      },
      "request": {
        "method": "PUT",
        "url": "DiagnosticReport/8ee3b8f2-c041-4729-ebf1-38d85519ee2c"
      }
    },
    {
      "fullUrl": "urn:uuid:041d93a8-0ae4-7b9c-e1a6-15f8c7c6abdd",
      "resource": {
        "resourceType": "Observation",
        "id": "041d93a8-0ae4-7b9c-e1a6-15f8c7c6abdd",
        "meta": {
          "profile": [
            "http://hl7.org/fhir/us/core/StructureDefinition/us-core-observationresults"
          ],
          "source": [
            "ecr"
          ]
        },
        "identifier": [
          {
            "system": "urn:oid:2.16.840.1.113883",
            "value": "https://fhir-ehr.cerner.com/r4/da0b5d99-573c-4f5e-aaf6-8d39fa93d033/Observation/M-19269550301/_history/1"
          }
        ],
        "category": [
          {
            "coding": [
              {
                "system": "http://terminology.hl7.org/CodeSystem/observation-category",
                "code": "laboratory"
              }
            ]
          }
        ],
        "status": "final",
        "code": {
          "coding": [
            {
              "code": "18182-6",
              "system": "http://loinc.org"
            }
          ]
        },
        "effectiveDateTime": "2022-04-13T09:46:00Z",
        "valueQuantity": {
          "value": 277,
          "unit": "mOsmol/kg"
        },
        "interpretation": [
          {
            "coding": [
              {
                "code": "N",
                "display": "Normal",
                "system": "http://terminology.hl7.org/CodeSystem/v3-ObservationInterpretation"
              }
            ]
          }
        ],
        "subject": {
          "reference": "Patient/e962c108-813b-41c5-9f7e-985de7265dcb"
        }
      },
      "request": {
        "method": "PUT",
        "url": "Observation/041d93a8-0ae4-7b9c-e1a6-15f8c7c6abdd"
      }
    },
    {
      "fullUrl": "urn:uuid:0b1e133c-19c5-5e2a-a47d-3a3bd51f4931",
      "resource": {
        "resourceType": "DiagnosticReport",
        "id": "0b1e133c-19c5-5e2a-a47d-3a3bd51f4931",
        "identifier": [
          {
            "system": "urn:ietf:rfc:3986",
            "value": "urn:uuid:564272a2-7e1c-4079-9f41-97d71caa3251"
          }
        ],
        "status": "final",
        "code": {
          "coding": [
            {
              "code": "1759-0",
              "system": "http://loinc.org"
            }
          ]
        },
        "subject": {
          "reference": "Patient/e962c108-813b-41c5-9f7e-985de7265dcb"
        },
        "result": [
          {
            "reference": "Observation/c8cd2349-1637-810c-2bb6-2a1997019295"
          }
        ],
        "meta": {
          "source": [
            "ecr"
          ]
        }
      },
      "request": {
        "method": "PUT",
        "url": "DiagnosticReport/0b1e133c-19c5-5e2a-a47d-3a3bd51f4931"
      }
    },
    {
      "fullUrl": "urn:uuid:c8cd2349-1637-810c-2bb6-2a1997019295",
      "resource": {
        "resourceType": "Observation",
        "id": "c8cd2349-1637-810c-2bb6-2a1997019295",
        "meta": {
          "profile": [
            "http://hl7.org/fhir/us/core/StructureDefinition/us-core-observationresults"
          ],
          "source": [
            "ecr"
          ]
        },
        "identifier": [
          {
            "system": "urn:oid:2.16.840.1.113883",
            "value": "https://fhir-ehr.cerner.com/r4/da0b5d99-573c-4f5e-aaf6-8d39fa93d033/Observation/M-19269550303/_history/1"
          }
        ],
        "category": [
          {
            "coding": [
              {
                "system": "http://terminology.hl7.org/CodeSystem/observation-category",
                "code": "laboratory"
              }
            ]
          }
        ],
        "status": "final",
        "code": {
          "coding": [
            {
              "code": "1759-0",
              "system": "http://loinc.org"
            }
          ]
        },
        "effectiveDateTime": "2022-04-13T09:46:00Z",
        "valueQuantity": {
          "value": 0.9,
          "unit": "null"
        },
        "interpretation": [
          {
            "coding": [
              {
                "code": "N",
                "display": "Normal",
                "system": "http://terminology.hl7.org/CodeSystem/v3-ObservationInterpretation"
              }
            ]
          }
        ],
        "subject": {
          "reference": "Patient/e962c108-813b-41c5-9f7e-985de7265dcb"
        }
      },
      "request": {
        "method": "PUT",
        "url": "Observation/c8cd2349-1637-810c-2bb6-2a1997019295"
      }
    },
    {
      "fullUrl": "urn:uuid:f6318908-fcc7-78a9-8938-0e2bf07ba9e0",
      "resource": {
        "resourceType": "DiagnosticReport",
        "id": "f6318908-fcc7-78a9-8938-0e2bf07ba9e0",
        "identifier": [
          {
            "system": "urn:ietf:rfc:3986",
            "value": "urn:uuid:c641bce7-8b88-4ec8-ab6e-51946b66dca0"
          }
        ],
        "status": "final",
        "code": {
          "coding": [
            {
              "code": "48642-3",
              "system": "http://loinc.org"
            }
          ]
        },
        "subject": {
          "reference": "Patient/e962c108-813b-41c5-9f7e-985de7265dcb"
        },
        "result": [
          {
            "reference": "Observation/264a6633-15a4-ffe9-a878-bfb37039c654"
          }
        ],
        "meta": {
          "source": [
            "ecr"
          ]
        }
      },
      "request": {
        "method": "PUT",
        "url": "DiagnosticReport/f6318908-fcc7-78a9-8938-0e2bf07ba9e0"
      }
    },
    {
      "fullUrl": "urn:uuid:264a6633-15a4-ffe9-a878-bfb37039c654",
      "resource": {
        "resourceType": "Observation",
        "id": "264a6633-15a4-ffe9-a878-bfb37039c654",
        "meta": {
          "profile": [
            "http://hl7.org/fhir/us/core/StructureDefinition/us-core-observationresults"
          ],
          "source": [
            "ecr"
          ]
        },
        "identifier": [
          {
            "system": "urn:oid:2.16.840.1.113883",
            "value": "https://fhir-ehr.cerner.com/r4/da0b5d99-573c-4f5e-aaf6-8d39fa93d033/Observation/M-19269550336/_history/1"
          }
        ],
        "category": [
          {
            "coding": [
              {
                "system": "http://terminology.hl7.org/CodeSystem/observation-category",
                "code": "laboratory"
              }
            ]
          }
        ],
        "status": "final",
        "code": {
          "coding": [
            {
              "code": "48642-3",
              "system": "http://loinc.org"
            }
          ]
        },
        "effectiveDateTime": "2022-04-13T09:46:00Z",
        "valueQuantity": {
          "value": 88,
          "unit": "mL/min/1.73m2"
        },
        "interpretation": [
          {
            "coding": [
              {
                "code": "N",
                "display": "Normal",
                "system": "http://terminology.hl7.org/CodeSystem/v3-ObservationInterpretation"
              }
            ]
          }
        ],
        "subject": {
          "reference": "Patient/e962c108-813b-41c5-9f7e-985de7265dcb"
        }
      },
      "request": {
        "method": "PUT",
        "url": "Observation/264a6633-15a4-ffe9-a878-bfb37039c654"
      }
    },
    {
      "fullUrl": "urn:uuid:9dea8b0a-c6d8-9e76-b254-b8c1615e18b0",
      "resource": {
        "resourceType": "DiagnosticReport",
        "id": "9dea8b0a-c6d8-9e76-b254-b8c1615e18b0",
        "identifier": [
          {
            "system": "urn:ietf:rfc:3986",
            "value": "urn:uuid:cc0eb862-b639-42fc-9024-13483749fcc8"
          }
        ],
        "status": "final",
        "code": {
          "coding": [
            {
              "code": "48643-1",
              "system": "http://loinc.org"
            }
          ]
        },
        "subject": {
          "reference": "Patient/e962c108-813b-41c5-9f7e-985de7265dcb"
        },
        "result": [
          {
            "reference": "Observation/fcf12021-cb7c-e1d8-b42a-5bca54402469"
          }
        ],
        "meta": {
          "source": [
            "ecr"
          ]
        }
      },
      "request": {
        "method": "PUT",
        "url": "DiagnosticReport/9dea8b0a-c6d8-9e76-b254-b8c1615e18b0"
      }
    },
    {
      "fullUrl": "urn:uuid:fcf12021-cb7c-e1d8-b42a-5bca54402469",
      "resource": {
        "resourceType": "Observation",
        "id": "fcf12021-cb7c-e1d8-b42a-5bca54402469",
        "meta": {
          "profile": [
            "http://hl7.org/fhir/us/core/StructureDefinition/us-core-observationresults"
          ],
          "source": [
            "ecr"
          ]
        },
        "identifier": [
          {
            "system": "urn:oid:2.16.840.1.113883",
            "value": "https://fhir-ehr.cerner.com/r4/da0b5d99-573c-4f5e-aaf6-8d39fa93d033/Observation/M-19269550356/_history/1"
          }
        ],
        "category": [
          {
            "coding": [
              {
                "system": "http://terminology.hl7.org/CodeSystem/observation-category",
                "code": "laboratory"
              }
            ]
          }
        ],
        "status": "final",
        "code": {
          "coding": [
            {
              "code": "48643-1",
              "system": "http://loinc.org"
            }
          ]
        },
        "effectiveDateTime": "2022-04-13T09:46:00Z",
        "valueQuantity": {
          "value": 102,
          "unit": "mL/min/1.73m2"
        },
        "interpretation": [
          {
            "coding": [
              {
                "code": "N",
                "display": "Normal",
                "system": "http://terminology.hl7.org/CodeSystem/v3-ObservationInterpretation"
              }
            ]
          }
        ],
        "subject": {
          "reference": "Patient/e962c108-813b-41c5-9f7e-985de7265dcb"
        }
      },
      "request": {
        "method": "PUT",
        "url": "Observation/fcf12021-cb7c-e1d8-b42a-5bca54402469"
      }
    },
    {
      "fullUrl": "urn:uuid:30e166e3-60bd-3c5d-7f66-750c3cc2440c",
      "resource": {
        "resourceType": "DiagnosticReport",
        "id": "30e166e3-60bd-3c5d-7f66-750c3cc2440c",
        "identifier": [
          {
            "system": "urn:ietf:rfc:3986",
            "value": "urn:uuid:b3cd99e3-e0fc-4994-9ef5-cd174ec227f9"
          }
        ],
        "status": "final",
        "code": {
          "coding": [
            {
              "code": "30392-5",
              "system": "http://loinc.org"
            }
          ]
        },
        "subject": {
          "reference": "Patient/e962c108-813b-41c5-9f7e-985de7265dcb"
        },
        "result": [
          {
            "reference": "Observation/3c2e98a4-fd49-f6db-d8d2-8aa7eb96ee5f"
          }
        ],
        "meta": {
          "source": [
            "ecr"
          ]
        }
      },
      "request": {
        "method": "PUT",
        "url": "DiagnosticReport/30e166e3-60bd-3c5d-7f66-750c3cc2440c"
      }
    },
    {
      "fullUrl": "urn:uuid:3c2e98a4-fd49-f6db-d8d2-8aa7eb96ee5f",
      "resource": {
        "resourceType": "Observation",
        "id": "3c2e98a4-fd49-f6db-d8d2-8aa7eb96ee5f",
        "meta": {
          "profile": [
            "http://hl7.org/fhir/us/core/StructureDefinition/us-core-observationresults"
          ],
          "source": [
            "ecr"
          ]
        },
        "identifier": [
          {
            "system": "urn:oid:2.16.840.1.113883",
            "value": "https://fhir-ehr.cerner.com/r4/da0b5d99-573c-4f5e-aaf6-8d39fa93d033/Observation/M-19269505788/_history/1"
          }
        ],
        "category": [
          {
            "coding": [
              {
                "system": "http://terminology.hl7.org/CodeSystem/observation-category",
                "code": "laboratory"
              }
            ]
          }
        ],
        "status": "final",
        "code": {
          "coding": [
            {
              "code": "30392-5",
              "system": "http://loinc.org"
            }
          ]
        },
        "effectiveDateTime": "2022-04-13T09:46:00Z",
        "valueQuantity": {
          "value": 0.02,
          "unit": "x10e3/mcL"
        },
        "interpretation": [
          {
            "coding": [
              {
                "code": "H",
                "display": "High",
                "system": "http://terminology.hl7.org/CodeSystem/v3-ObservationInterpretation"
              }
            ]
          }
        ],
        "subject": {
          "reference": "Patient/e962c108-813b-41c5-9f7e-985de7265dcb"
        }
      },
      "request": {
        "method": "PUT",
        "url": "Observation/3c2e98a4-fd49-f6db-d8d2-8aa7eb96ee5f"
      }
    },
    {
      "fullUrl": "urn:uuid:d1cd2850-433e-f695-52d0-b1a2e8acce91",
      "resource": {
        "resourceType": "DiagnosticReport",
        "id": "d1cd2850-433e-f695-52d0-b1a2e8acce91",
        "identifier": [
          {
            "system": "urn:ietf:rfc:3986",
            "value": "urn:uuid:bdeb95d8-f0cc-478d-9489-57c7cffedb41"
          }
        ],
        "status": "final",
        "code": {
          "coding": [
            {
              "code": "2951-2",
              "system": "http://loinc.org"
            }
          ]
        },
        "subject": {
          "reference": "Patient/e962c108-813b-41c5-9f7e-985de7265dcb"
        },
        "result": [
          {
            "reference": "Observation/bb2380e8-f0e2-2280-ea12-5ff8ad038e59"
          }
        ],
        "meta": {
          "source": [
            "ecr"
          ]
        }
      },
      "request": {
        "method": "PUT",
        "url": "DiagnosticReport/d1cd2850-433e-f695-52d0-b1a2e8acce91"
      }
    },
    {
      "fullUrl": "urn:uuid:bb2380e8-f0e2-2280-ea12-5ff8ad038e59",
      "resource": {
        "resourceType": "Observation",
        "id": "bb2380e8-f0e2-2280-ea12-5ff8ad038e59",
        "meta": {
          "profile": [
            "http://hl7.org/fhir/us/core/StructureDefinition/us-core-observationresults"
          ],
          "source": [
            "ecr"
          ]
        },
        "identifier": [
          {
            "system": "urn:oid:2.16.840.1.113883",
            "value": "https://fhir-ehr.cerner.com/r4/da0b5d99-573c-4f5e-aaf6-8d39fa93d033/Observation/M-19269550255/_history/1"
          }
        ],
        "category": [
          {
            "coding": [
              {
                "system": "http://terminology.hl7.org/CodeSystem/observation-category",
                "code": "laboratory"
              }
            ]
          }
        ],
        "status": "final",
        "code": {
          "coding": [
            {
              "code": "2951-2",
              "system": "http://loinc.org"
            }
          ]
        },
        "effectiveDateTime": "2022-04-13T09:46:00Z",
        "valueQuantity": {
          "value": 137,
          "unit": "mmol/L"
        },
        "interpretation": [
          {
            "coding": [
              {
                "code": "N",
                "display": "Normal",
                "system": "http://terminology.hl7.org/CodeSystem/v3-ObservationInterpretation"
              }
            ]
          }
        ],
        "subject": {
          "reference": "Patient/e962c108-813b-41c5-9f7e-985de7265dcb"
        }
      },
      "request": {
        "method": "PUT",
        "url": "Observation/bb2380e8-f0e2-2280-ea12-5ff8ad038e59"
      }
    },
    {
      "fullUrl": "urn:uuid:74143444-ffc8-1e81-56c9-7d4d9e97fa38",
      "resource": {
        "resourceType": "DiagnosticReport",
        "id": "74143444-ffc8-1e81-56c9-7d4d9e97fa38",
        "identifier": [
          {
            "system": "urn:ietf:rfc:3986",
            "value": "urn:uuid:3c93dce9-5a1a-4bc4-90a7-b92d2cc97dae"
          }
        ],
        "status": "final",
        "code": {
          "coding": [
            {
              "code": "2823-3",
              "system": "http://loinc.org"
            }
          ]
        },
        "subject": {
          "reference": "Patient/e962c108-813b-41c5-9f7e-985de7265dcb"
        },
        "result": [
          {
            "reference": "Observation/505e9087-9721-c2a2-844d-99133b9fe974"
          }
        ],
        "meta": {
          "source": [
            "ecr"
          ]
        }
      },
      "request": {
        "method": "PUT",
        "url": "DiagnosticReport/74143444-ffc8-1e81-56c9-7d4d9e97fa38"
      }
    },
    {
      "fullUrl": "urn:uuid:505e9087-9721-c2a2-844d-99133b9fe974",
      "resource": {
        "resourceType": "Observation",
        "id": "505e9087-9721-c2a2-844d-99133b9fe974",
        "meta": {
          "profile": [
            "http://hl7.org/fhir/us/core/StructureDefinition/us-core-observationresults"
          ],
          "source": [
            "ecr"
          ]
        },
        "identifier": [
          {
            "system": "urn:oid:2.16.840.1.113883",
            "value": "https://fhir-ehr.cerner.com/r4/da0b5d99-573c-4f5e-aaf6-8d39fa93d033/Observation/M-19269550259/_history/1"
          }
        ],
        "category": [
          {
            "coding": [
              {
                "system": "http://terminology.hl7.org/CodeSystem/observation-category",
                "code": "laboratory"
              }
            ]
          }
        ],
        "status": "final",
        "code": {
          "coding": [
            {
              "code": "2823-3",
              "system": "http://loinc.org"
            }
          ]
        },
        "effectiveDateTime": "2022-04-13T09:46:00Z",
        "valueQuantity": {
          "value": 4.1,
          "unit": "mmol/L"
        },
        "interpretation": [
          {
            "coding": [
              {
                "code": "N",
                "display": "Normal",
                "system": "http://terminology.hl7.org/CodeSystem/v3-ObservationInterpretation"
              }
            ]
          }
        ],
        "subject": {
          "reference": "Patient/e962c108-813b-41c5-9f7e-985de7265dcb"
        }
      },
      "request": {
        "method": "PUT",
        "url": "Observation/505e9087-9721-c2a2-844d-99133b9fe974"
      }
    },
    {
      "fullUrl": "urn:uuid:87dc114d-3904-d450-4641-7b2519af8dc9",
      "resource": {
        "resourceType": "DiagnosticReport",
        "id": "87dc114d-3904-d450-4641-7b2519af8dc9",
        "identifier": [
          {
            "system": "urn:ietf:rfc:3986",
            "value": "urn:uuid:372ad518-205b-464e-8ce7-72e5c2c048cd"
          }
        ],
        "status": "final",
        "code": {
          "coding": [
            {
              "code": "704-7",
              "system": "http://loinc.org"
            }
          ]
        },
        "subject": {
          "reference": "Patient/e962c108-813b-41c5-9f7e-985de7265dcb"
        },
        "result": [
          {
            "reference": "Observation/2f178a8f-6e74-bb84-5619-0418924c6a7e"
          }
        ],
        "meta": {
          "source": [
            "ecr"
          ]
        }
      },
      "request": {
        "method": "PUT",
        "url": "DiagnosticReport/87dc114d-3904-d450-4641-7b2519af8dc9"
      }
    },
    {
      "fullUrl": "urn:uuid:2f178a8f-6e74-bb84-5619-0418924c6a7e",
      "resource": {
        "resourceType": "Observation",
        "id": "2f178a8f-6e74-bb84-5619-0418924c6a7e",
        "meta": {
          "profile": [
            "http://hl7.org/fhir/us/core/StructureDefinition/us-core-observationresults"
          ],
          "source": [
            "ecr"
          ]
        },
        "identifier": [
          {
            "system": "urn:oid:2.16.840.1.113883",
            "value": "https://fhir-ehr.cerner.com/r4/da0b5d99-573c-4f5e-aaf6-8d39fa93d033/Observation/M-19269602326/_history/1"
          }
        ],
        "category": [
          {
            "coding": [
              {
                "system": "http://terminology.hl7.org/CodeSystem/observation-category",
                "code": "laboratory"
              }
            ]
          }
        ],
        "status": "final",
        "code": {
          "coding": [
            {
              "code": "704-7",
              "system": "http://loinc.org"
            }
          ]
        },
        "effectiveDateTime": "2022-04-13T09:46:00Z",
        "valueQuantity": {
          "value": 0.05,
          "unit": "x10e3/mcL"
        },
        "interpretation": [
          {
            "coding": [
              {
                "code": "N",
                "display": "Normal",
                "system": "http://terminology.hl7.org/CodeSystem/v3-ObservationInterpretation"
              }
            ]
          }
        ],
        "subject": {
          "reference": "Patient/e962c108-813b-41c5-9f7e-985de7265dcb"
        }
      },
      "request": {
        "method": "PUT",
        "url": "Observation/2f178a8f-6e74-bb84-5619-0418924c6a7e"
      }
    },
    {
      "fullUrl": "urn:uuid:4b4f1194-077e-c236-b872-b7997180b523",
      "resource": {
        "resourceType": "DiagnosticReport",
        "id": "4b4f1194-077e-c236-b872-b7997180b523",
        "identifier": [
          {
            "system": "urn:ietf:rfc:3986",
            "value": "urn:uuid:ee7ad5cd-d663-4e02-b2a7-6de7bdfd4545"
          }
        ],
        "status": "final",
        "code": {
          "coding": [
            {
              "code": "1751-7",
              "system": "http://loinc.org"
            }
          ]
        },
        "subject": {
          "reference": "Patient/e962c108-813b-41c5-9f7e-985de7265dcb"
        },
        "result": [
          {
            "reference": "Observation/cfc53f36-abef-d177-e089-957c73c2fc07"
          }
        ],
        "meta": {
          "source": [
            "ecr"
          ]
        }
      },
      "request": {
        "method": "PUT",
        "url": "DiagnosticReport/4b4f1194-077e-c236-b872-b7997180b523"
      }
    },
    {
      "fullUrl": "urn:uuid:cfc53f36-abef-d177-e089-957c73c2fc07",
      "resource": {
        "resourceType": "Observation",
        "id": "cfc53f36-abef-d177-e089-957c73c2fc07",
        "meta": {
          "profile": [
            "http://hl7.org/fhir/us/core/StructureDefinition/us-core-observationresults"
          ],
          "source": [
            "ecr"
          ]
        },
        "identifier": [
          {
            "system": "urn:oid:2.16.840.1.113883",
            "value": "https://fhir-ehr.cerner.com/r4/da0b5d99-573c-4f5e-aaf6-8d39fa93d033/Observation/M-19269550287/_history/1"
          }
        ],
        "category": [
          {
            "coding": [
              {
                "system": "http://terminology.hl7.org/CodeSystem/observation-category",
                "code": "laboratory"
              }
            ]
          }
        ],
        "status": "final",
        "code": {
          "coding": [
            {
              "code": "1751-7",
              "system": "http://loinc.org"
            }
          ]
        },
        "effectiveDateTime": "2022-04-13T09:46:00Z",
        "valueQuantity": {
          "value": 3.6,
          "unit": "gm/dL"
        },
        "interpretation": [
          {
            "coding": [
              {
                "code": "N",
                "display": "Normal",
                "system": "http://terminology.hl7.org/CodeSystem/v3-ObservationInterpretation"
              }
            ]
          }
        ],
        "subject": {
          "reference": "Patient/e962c108-813b-41c5-9f7e-985de7265dcb"
        }
      },
      "request": {
        "method": "PUT",
        "url": "Observation/cfc53f36-abef-d177-e089-957c73c2fc07"
      }
    },
    {
      "fullUrl": "urn:uuid:e283ff29-2798-33cb-ec96-53f68f61b6ad",
      "resource": {
        "resourceType": "DiagnosticReport",
        "id": "e283ff29-2798-33cb-ec96-53f68f61b6ad",
        "identifier": [
          {
            "system": "urn:ietf:rfc:3986",
            "value": "urn:uuid:5829ed73-563e-4a65-a0b8-b86de17dbbcb"
          }
        ],
        "status": "final",
        "code": {
          "coding": [
            {
              "code": "742-7",
              "system": "http://loinc.org"
            }
          ]
        },
        "subject": {
          "reference": "Patient/e962c108-813b-41c5-9f7e-985de7265dcb"
        },
        "result": [
          {
            "reference": "Observation/f0d9b1a9-5706-8f53-b267-d05e692a19c6"
          }
        ],
        "meta": {
          "source": [
            "ecr"
          ]
        }
      },
      "request": {
        "method": "PUT",
        "url": "DiagnosticReport/e283ff29-2798-33cb-ec96-53f68f61b6ad"
      }
    },
    {
      "fullUrl": "urn:uuid:f0d9b1a9-5706-8f53-b267-d05e692a19c6",
      "resource": {
        "resourceType": "Observation",
        "id": "f0d9b1a9-5706-8f53-b267-d05e692a19c6",
        "meta": {
          "profile": [
            "http://hl7.org/fhir/us/core/StructureDefinition/us-core-observationresults"
          ],
          "source": [
            "ecr"
          ]
        },
        "identifier": [
          {
            "system": "urn:oid:2.16.840.1.113883",
            "value": "https://fhir-ehr.cerner.com/r4/da0b5d99-573c-4f5e-aaf6-8d39fa93d033/Observation/M-19269602322/_history/1"
          }
        ],
        "category": [
          {
            "coding": [
              {
                "system": "http://terminology.hl7.org/CodeSystem/observation-category",
                "code": "laboratory"
              }
            ]
          }
        ],
        "status": "final",
        "code": {
          "coding": [
            {
              "code": "742-7",
              "system": "http://loinc.org"
            }
          ]
        },
        "effectiveDateTime": "2022-04-13T09:46:00Z",
        "valueQuantity": {
          "value": 1.15,
          "unit": "x10e3/mcL"
        },
        "interpretation": [
          {
            "coding": [
              {
                "code": "H",
                "display": "High",
                "system": "http://terminology.hl7.org/CodeSystem/v3-ObservationInterpretation"
              }
            ]
          }
        ],
        "subject": {
          "reference": "Patient/e962c108-813b-41c5-9f7e-985de7265dcb"
        }
      },
      "request": {
        "method": "PUT",
        "url": "Observation/f0d9b1a9-5706-8f53-b267-d05e692a19c6"
      }
    },
    {
      "fullUrl": "urn:uuid:a8f22958-8da6-937f-e26f-4f26c3606357",
      "resource": {
        "resourceType": "DiagnosticReport",
        "id": "a8f22958-8da6-937f-e26f-4f26c3606357",
        "identifier": [
          {
            "system": "urn:ietf:rfc:3986",
            "value": "urn:uuid:35f980c6-181f-4771-9493-3ca516ada46b"
          }
        ],
        "status": "final",
        "code": {
          "coding": [
            {
              "code": "751-8",
              "system": "http://loinc.org"
            }
          ]
        },
        "subject": {
          "reference": "Patient/e962c108-813b-41c5-9f7e-985de7265dcb"
        },
        "result": [
          {
            "reference": "Observation/ea70cb27-85f0-b205-d658-cf9ebdf40802"
          }
        ],
        "meta": {
          "source": [
            "ecr"
          ]
        }
      },
      "request": {
        "method": "PUT",
        "url": "DiagnosticReport/a8f22958-8da6-937f-e26f-4f26c3606357"
      }
    },
    {
      "fullUrl": "urn:uuid:ea70cb27-85f0-b205-d658-cf9ebdf40802",
      "resource": {
        "resourceType": "Observation",
        "id": "ea70cb27-85f0-b205-d658-cf9ebdf40802",
        "meta": {
          "profile": [
            "http://hl7.org/fhir/us/core/StructureDefinition/us-core-observationresults"
          ],
          "source": [
            "ecr"
          ]
        },
        "identifier": [
          {
            "system": "urn:oid:2.16.840.1.113883",
            "value": "https://fhir-ehr.cerner.com/r4/da0b5d99-573c-4f5e-aaf6-8d39fa93d033/Observation/M-19269602318/_history/1"
          }
        ],
        "category": [
          {
            "coding": [
              {
                "system": "http://terminology.hl7.org/CodeSystem/observation-category",
                "code": "laboratory"
              }
            ]
          }
        ],
        "status": "final",
        "code": {
          "coding": [
            {
              "code": "751-8",
              "system": "http://loinc.org"
            }
          ]
        },
        "effectiveDateTime": "2022-04-13T09:46:00Z",
        "valueQuantity": {
          "value": 7.67,
          "unit": "x10e3/mcL"
        },
        "interpretation": [
          {
            "coding": [
              {
                "code": "N",
                "display": "Normal",
                "system": "http://terminology.hl7.org/CodeSystem/v3-ObservationInterpretation"
              }
            ]
          }
        ],
        "subject": {
          "reference": "Patient/e962c108-813b-41c5-9f7e-985de7265dcb"
        }
      },
      "request": {
        "method": "PUT",
        "url": "Observation/ea70cb27-85f0-b205-d658-cf9ebdf40802"
      }
    },
    {
      "fullUrl": "urn:uuid:00266689-c2b8-e2f6-5715-68e73f360a6f",
      "resource": {
        "resourceType": "DiagnosticReport",
        "id": "00266689-c2b8-e2f6-5715-68e73f360a6f",
        "identifier": [
          {
            "system": "urn:ietf:rfc:3986",
            "value": "urn:uuid:e3a89925-5728-4760-b83e-ed088479c95f"
          }
        ],
        "status": "final",
        "code": {
          "coding": [
            {
              "code": "706-2",
              "system": "http://loinc.org"
            }
          ]
        },
        "subject": {
          "reference": "Patient/e962c108-813b-41c5-9f7e-985de7265dcb"
        },
        "result": [
          {
            "reference": "Observation/607685f7-0b3f-e484-0766-80dd6d4a5842"
          }
        ],
        "meta": {
          "source": [
            "ecr"
          ]
        }
      },
      "request": {
        "method": "PUT",
        "url": "DiagnosticReport/00266689-c2b8-e2f6-5715-68e73f360a6f"
      }
    },
    {
      "fullUrl": "urn:uuid:607685f7-0b3f-e484-0766-80dd6d4a5842",
      "resource": {
        "resourceType": "Observation",
        "id": "607685f7-0b3f-e484-0766-80dd6d4a5842",
        "meta": {
          "profile": [
            "http://hl7.org/fhir/us/core/StructureDefinition/us-core-observationresults"
          ],
          "source": [
            "ecr"
          ]
        },
        "identifier": [
          {
            "system": "urn:oid:2.16.840.1.113883",
            "value": "https://fhir-ehr.cerner.com/r4/da0b5d99-573c-4f5e-aaf6-8d39fa93d033/Observation/M-19269602316/_history/1"
          }
        ],
        "category": [
          {
            "coding": [
              {
                "system": "http://terminology.hl7.org/CodeSystem/observation-category",
                "code": "laboratory"
              }
            ]
          }
        ],
        "status": "final",
        "code": {
          "coding": [
            {
              "code": "706-2",
              "system": "http://loinc.org"
            }
          ]
        },
        "effectiveDateTime": "2022-04-13T09:46:00Z",
        "valueQuantity": {
          "value": 0.4,
          "unit": "%"
        },
        "subject": {
          "reference": "Patient/e962c108-813b-41c5-9f7e-985de7265dcb"
        }
      },
      "request": {
        "method": "PUT",
        "url": "Observation/607685f7-0b3f-e484-0766-80dd6d4a5842"
      }
    },
    {
      "fullUrl": "urn:uuid:9d7080c7-27a0-1d07-77a5-858b216e0092",
      "resource": {
        "resourceType": "DiagnosticReport",
        "id": "9d7080c7-27a0-1d07-77a5-858b216e0092",
        "identifier": [
          {
            "system": "urn:ietf:rfc:3986",
            "value": "urn:uuid:3f61d723-dea2-4656-8b32-0981f3686886"
          }
        ],
        "status": "final",
        "code": {
          "coding": [
            {
              "code": "713-8",
              "system": "http://loinc.org"
            }
          ]
        },
        "subject": {
          "reference": "Patient/e962c108-813b-41c5-9f7e-985de7265dcb"
        },
        "result": [
          {
            "reference": "Observation/b35693d0-16d6-31d1-3fa9-e7691d7dc924"
          }
        ],
        "meta": {
          "source": [
            "ecr"
          ]
        }
      },
      "request": {
        "method": "PUT",
        "url": "DiagnosticReport/9d7080c7-27a0-1d07-77a5-858b216e0092"
      }
    },
    {
      "fullUrl": "urn:uuid:b35693d0-16d6-31d1-3fa9-e7691d7dc924",
      "resource": {
        "resourceType": "Observation",
        "id": "b35693d0-16d6-31d1-3fa9-e7691d7dc924",
        "meta": {
          "profile": [
            "http://hl7.org/fhir/us/core/StructureDefinition/us-core-observationresults"
          ],
          "source": [
            "ecr"
          ]
        },
        "identifier": [
          {
            "system": "urn:oid:2.16.840.1.113883",
            "value": "https://fhir-ehr.cerner.com/r4/da0b5d99-573c-4f5e-aaf6-8d39fa93d033/Observation/M-19269602314/_history/1"
          }
        ],
        "category": [
          {
            "coding": [
              {
                "system": "http://terminology.hl7.org/CodeSystem/observation-category",
                "code": "laboratory"
              }
            ]
          }
        ],
        "status": "final",
        "code": {
          "coding": [
            {
              "code": "713-8",
              "system": "http://loinc.org"
            }
          ]
        },
        "effectiveDateTime": "2022-04-13T09:46:00Z",
        "valueQuantity": {
          "value": 0.8,
          "unit": "%"
        },
        "subject": {
          "reference": "Patient/e962c108-813b-41c5-9f7e-985de7265dcb"
        }
      },
      "request": {
        "method": "PUT",
        "url": "Observation/b35693d0-16d6-31d1-3fa9-e7691d7dc924"
      }
    },
    {
      "fullUrl": "urn:uuid:906544b4-43ac-e42b-b83a-f769f7aa3aeb",
      "resource": {
        "resourceType": "DiagnosticReport",
        "id": "906544b4-43ac-e42b-b83a-f769f7aa3aeb",
        "identifier": [
          {
            "system": "urn:ietf:rfc:3986",
            "value": "urn:uuid:b40f022e-78dd-4dae-9997-e6e12f26604b"
          }
        ],
        "status": "final",
        "code": {
          "coding": [
            {
              "code": "736-9",
              "system": "http://loinc.org"
            }
          ]
        },
        "subject": {
          "reference": "Patient/e962c108-813b-41c5-9f7e-985de7265dcb"
        },
        "result": [
          {
            "reference": "Observation/8c4061ab-74df-5093-6808-7ad07235e7e6"
          }
        ],
        "meta": {
          "source": [
            "ecr"
          ]
        }
      },
      "request": {
        "method": "PUT",
        "url": "DiagnosticReport/906544b4-43ac-e42b-b83a-f769f7aa3aeb"
      }
    },
    {
      "fullUrl": "urn:uuid:8c4061ab-74df-5093-6808-7ad07235e7e6",
      "resource": {
        "resourceType": "Observation",
        "id": "8c4061ab-74df-5093-6808-7ad07235e7e6",
        "meta": {
          "profile": [
            "http://hl7.org/fhir/us/core/StructureDefinition/us-core-observationresults"
          ],
          "source": [
            "ecr"
          ]
        },
        "identifier": [
          {
            "system": "urn:oid:2.16.840.1.113883",
            "value": "https://fhir-ehr.cerner.com/r4/da0b5d99-573c-4f5e-aaf6-8d39fa93d033/Observation/M-19269602310/_history/1"
          }
        ],
        "category": [
          {
            "coding": [
              {
                "system": "http://terminology.hl7.org/CodeSystem/observation-category",
                "code": "laboratory"
              }
            ]
          }
        ],
        "status": "final",
        "code": {
          "coding": [
            {
              "code": "736-9",
              "system": "http://loinc.org"
            }
          ]
        },
        "effectiveDateTime": "2022-04-13T09:46:00Z",
        "valueQuantity": {
          "value": 34.1,
          "unit": "%"
        },
        "subject": {
          "reference": "Patient/e962c108-813b-41c5-9f7e-985de7265dcb"
        }
      },
      "request": {
        "method": "PUT",
        "url": "Observation/8c4061ab-74df-5093-6808-7ad07235e7e6"
      }
    },
    {
      "fullUrl": "urn:uuid:d4717827-135c-e088-543c-5514cc1c6639",
      "resource": {
        "resourceType": "DiagnosticReport",
        "id": "d4717827-135c-e088-543c-5514cc1c6639",
        "identifier": [
          {
            "system": "urn:ietf:rfc:3986",
            "value": "urn:uuid:897cd877-6da9-411e-8fb7-a111adab864f"
          }
        ],
        "status": "final",
        "code": {
          "coding": [
            {
              "code": "770-8",
              "system": "http://loinc.org"
            }
          ]
        },
        "subject": {
          "reference": "Patient/e962c108-813b-41c5-9f7e-985de7265dcb"
        },
        "result": [
          {
            "reference": "Observation/d2719f59-27ca-6226-f3bd-586ef734eef5"
          }
        ],
        "meta": {
          "source": [
            "ecr"
          ]
        }
      },
      "request": {
        "method": "PUT",
        "url": "DiagnosticReport/d4717827-135c-e088-543c-5514cc1c6639"
      }
    },
    {
      "fullUrl": "urn:uuid:d2719f59-27ca-6226-f3bd-586ef734eef5",
      "resource": {
        "resourceType": "Observation",
        "id": "d2719f59-27ca-6226-f3bd-586ef734eef5",
        "meta": {
          "profile": [
            "http://hl7.org/fhir/us/core/StructureDefinition/us-core-observationresults"
          ],
          "source": [
            "ecr"
          ]
        },
        "identifier": [
          {
            "system": "urn:oid:2.16.840.1.113883",
            "value": "https://fhir-ehr.cerner.com/r4/da0b5d99-573c-4f5e-aaf6-8d39fa93d033/Observation/M-19269602308/_history/1"
          }
        ],
        "category": [
          {
            "coding": [
              {
                "system": "http://terminology.hl7.org/CodeSystem/observation-category",
                "code": "laboratory"
              }
            ]
          }
        ],
        "status": "final",
        "code": {
          "coding": [
            {
              "code": "770-8",
              "system": "http://loinc.org"
            }
          ]
        },
        "effectiveDateTime": "2022-04-13T09:46:00Z",
        "valueQuantity": {
          "value": 56.1,
          "unit": "%"
        },
        "subject": {
          "reference": "Patient/e962c108-813b-41c5-9f7e-985de7265dcb"
        }
      },
      "request": {
        "method": "PUT",
        "url": "Observation/d2719f59-27ca-6226-f3bd-586ef734eef5"
      }
    },
    {
      "fullUrl": "urn:uuid:83bfd03e-e957-fca5-23ba-27f69bb9dc23",
      "resource": {
        "resourceType": "DiagnosticReport",
        "id": "83bfd03e-e957-fca5-23ba-27f69bb9dc23",
        "identifier": [
          {
            "system": "urn:ietf:rfc:3986",
            "value": "urn:uuid:5f4c64c0-8cff-49ba-9597-642ddb7596a5"
          }
        ],
        "status": "final",
        "code": {
          "coding": [
            {
              "code": "17861-6",
              "system": "http://loinc.org"
            }
          ]
        },
        "subject": {
          "reference": "Patient/e962c108-813b-41c5-9f7e-985de7265dcb"
        },
        "result": [
          {
            "reference": "Observation/66a38bce-d5b3-fb1c-7e04-46069d2cdce4"
          }
        ],
        "meta": {
          "source": [
            "ecr"
          ]
        }
      },
      "request": {
        "method": "PUT",
        "url": "DiagnosticReport/83bfd03e-e957-fca5-23ba-27f69bb9dc23"
      }
    },
    {
      "fullUrl": "urn:uuid:66a38bce-d5b3-fb1c-7e04-46069d2cdce4",
      "resource": {
        "resourceType": "Observation",
        "id": "66a38bce-d5b3-fb1c-7e04-46069d2cdce4",
        "meta": {
          "profile": [
            "http://hl7.org/fhir/us/core/StructureDefinition/us-core-observationresults"
          ],
          "source": [
            "ecr"
          ]
        },
        "identifier": [
          {
            "system": "urn:oid:2.16.840.1.113883",
            "value": "https://fhir-ehr.cerner.com/r4/da0b5d99-573c-4f5e-aaf6-8d39fa93d033/Observation/M-19269550295/_history/1"
          }
        ],
        "category": [
          {
            "coding": [
              {
                "system": "http://terminology.hl7.org/CodeSystem/observation-category",
                "code": "laboratory"
              }
            ]
          }
        ],
        "status": "final",
        "code": {
          "coding": [
            {
              "code": "17861-6",
              "system": "http://loinc.org"
            }
          ]
        },
        "effectiveDateTime": "2022-04-13T09:46:00Z",
        "valueQuantity": {
          "value": 9.6,
          "unit": "mg/dL"
        },
        "interpretation": [
          {
            "coding": [
              {
                "code": "N",
                "display": "Normal",
                "system": "http://terminology.hl7.org/CodeSystem/v3-ObservationInterpretation"
              }
            ]
          }
        ],
        "subject": {
          "reference": "Patient/e962c108-813b-41c5-9f7e-985de7265dcb"
        }
      },
      "request": {
        "method": "PUT",
        "url": "Observation/66a38bce-d5b3-fb1c-7e04-46069d2cdce4"
      }
    },
    {
      "fullUrl": "urn:uuid:fbf214d2-a3e8-34d5-f68b-7e1090af18a5",
      "resource": {
        "resourceType": "DiagnosticReport",
        "id": "fbf214d2-a3e8-34d5-f68b-7e1090af18a5",
        "identifier": [
          {
            "system": "urn:ietf:rfc:3986",
            "value": "urn:uuid:1a5aaa1b-7d02-46b3-9d63-89da26fed7dc"
          }
        ],
        "status": "final",
        "code": {
          "coding": [
            {
              "code": "21000-5",
              "system": "http://loinc.org"
            }
          ]
        },
        "subject": {
          "reference": "Patient/e962c108-813b-41c5-9f7e-985de7265dcb"
        },
        "result": [
          {
            "reference": "Observation/3ca70793-400f-6caa-a25b-3a7ae07c5e39"
          }
        ],
        "meta": {
          "source": [
            "ecr"
          ]
        }
      },
      "request": {
        "method": "PUT",
        "url": "DiagnosticReport/fbf214d2-a3e8-34d5-f68b-7e1090af18a5"
      }
    },
    {
      "fullUrl": "urn:uuid:3ca70793-400f-6caa-a25b-3a7ae07c5e39",
      "resource": {
        "resourceType": "Observation",
        "id": "3ca70793-400f-6caa-a25b-3a7ae07c5e39",
        "meta": {
          "profile": [
            "http://hl7.org/fhir/us/core/StructureDefinition/us-core-observationresults"
          ],
          "source": [
            "ecr"
          ]
        },
        "identifier": [
          {
            "system": "urn:oid:2.16.840.1.113883",
            "value": "https://fhir-ehr.cerner.com/r4/da0b5d99-573c-4f5e-aaf6-8d39fa93d033/Observation/M-19269505780/_history/1"
          }
        ],
        "category": [
          {
            "coding": [
              {
                "system": "http://terminology.hl7.org/CodeSystem/observation-category",
                "code": "laboratory"
              }
            ]
          }
        ],
        "status": "final",
        "code": {
          "coding": [
            {
              "code": "21000-5",
              "system": "http://loinc.org"
            }
          ]
        },
        "effectiveDateTime": "2022-04-13T09:46:00Z",
        "valueQuantity": {
          "value": 45.6,
          "unit": "Femtoliters"
        },
        "interpretation": [
          {
            "coding": [
              {
                "code": "N",
                "display": "Normal",
                "system": "http://terminology.hl7.org/CodeSystem/v3-ObservationInterpretation"
              }
            ]
          }
        ],
        "subject": {
          "reference": "Patient/e962c108-813b-41c5-9f7e-985de7265dcb"
        }
      },
      "request": {
        "method": "PUT",
        "url": "Observation/3ca70793-400f-6caa-a25b-3a7ae07c5e39"
      }
    },
    {
      "fullUrl": "urn:uuid:f84b8a24-db7d-0bca-4ac4-b2eec6ded347",
      "resource": {
        "resourceType": "DiagnosticReport",
        "id": "f84b8a24-db7d-0bca-4ac4-b2eec6ded347",
        "identifier": [
          {
            "system": "urn:ietf:rfc:3986",
            "value": "urn:uuid:54510b64-972e-45c6-8135-596d5cadc242"
          }
        ],
        "status": "final",
        "code": {
          "coding": [
            {
              "code": "53115-2",
              "system": "http://loinc.org"
            }
          ]
        },
        "subject": {
          "reference": "Patient/e962c108-813b-41c5-9f7e-985de7265dcb"
        },
        "result": [
          {
            "reference": "Observation/7899eb53-1762-5452-2c01-1e89e87ecd75"
          }
        ],
        "meta": {
          "source": [
            "ecr"
          ]
        }
      },
      "request": {
        "method": "PUT",
        "url": "DiagnosticReport/f84b8a24-db7d-0bca-4ac4-b2eec6ded347"
      }
    },
    {
      "fullUrl": "urn:uuid:7899eb53-1762-5452-2c01-1e89e87ecd75",
      "resource": {
        "resourceType": "Observation",
        "id": "7899eb53-1762-5452-2c01-1e89e87ecd75",
        "meta": {
          "profile": [
            "http://hl7.org/fhir/us/core/StructureDefinition/us-core-observationresults"
          ],
          "source": [
            "ecr"
          ]
        },
        "identifier": [
          {
            "system": "urn:oid:2.16.840.1.113883",
            "value": "https://fhir-ehr.cerner.com/r4/da0b5d99-573c-4f5e-aaf6-8d39fa93d033/Observation/M-19269602328/_history/1"
          }
        ],
        "category": [
          {
            "coding": [
              {
                "system": "http://terminology.hl7.org/CodeSystem/observation-category",
                "code": "laboratory"
              }
            ]
          }
        ],
        "status": "final",
        "code": {
          "coding": [
            {
              "code": "53115-2",
              "system": "http://loinc.org"
            }
          ]
        },
        "effectiveDateTime": "2022-04-13T09:46:00Z",
        "valueQuantity": {
          "value": 0.03,
          "unit": "x10e3/mcL"
        },
        "interpretation": [
          {
            "coding": [
              {
                "code": "N",
                "display": "Normal",
                "system": "http://terminology.hl7.org/CodeSystem/v3-ObservationInterpretation"
              }
            ]
          }
        ],
        "subject": {
          "reference": "Patient/e962c108-813b-41c5-9f7e-985de7265dcb"
        }
      },
      "request": {
        "method": "PUT",
        "url": "Observation/7899eb53-1762-5452-2c01-1e89e87ecd75"
      }
    },
    {
      "fullUrl": "urn:uuid:e78de739-c387-1408-37c7-3e03a9b0d86d",
      "resource": {
        "resourceType": "DiagnosticReport",
        "id": "e78de739-c387-1408-37c7-3e03a9b0d86d",
        "identifier": [
          {
            "system": "urn:ietf:rfc:3986",
            "value": "urn:uuid:e4012383-c2c2-49b2-a2df-b8f0f760df2c"
          }
        ],
        "status": "final",
        "code": {
          "coding": [
            {
              "code": "731-0",
              "system": "http://loinc.org"
            }
          ]
        },
        "subject": {
          "reference": "Patient/e962c108-813b-41c5-9f7e-985de7265dcb"
        },
        "result": [
          {
            "reference": "Observation/e5978ea1-fec6-e6e8-5475-4c31c3c8abd7"
          }
        ],
        "meta": {
          "source": [
            "ecr"
          ]
        }
      },
      "request": {
        "method": "PUT",
        "url": "DiagnosticReport/e78de739-c387-1408-37c7-3e03a9b0d86d"
      }
    },
    {
      "fullUrl": "urn:uuid:e5978ea1-fec6-e6e8-5475-4c31c3c8abd7",
      "resource": {
        "resourceType": "Observation",
        "id": "e5978ea1-fec6-e6e8-5475-4c31c3c8abd7",
        "meta": {
          "profile": [
            "http://hl7.org/fhir/us/core/StructureDefinition/us-core-observationresults"
          ],
          "source": [
            "ecr"
          ]
        },
        "identifier": [
          {
            "system": "urn:oid:2.16.840.1.113883",
            "value": "https://fhir-ehr.cerner.com/r4/da0b5d99-573c-4f5e-aaf6-8d39fa93d033/Observation/M-19269602320/_history/1"
          }
        ],
        "category": [
          {
            "coding": [
              {
                "system": "http://terminology.hl7.org/CodeSystem/observation-category",
                "code": "laboratory"
              }
            ]
          }
        ],
        "status": "final",
        "code": {
          "coding": [
            {
              "code": "731-0",
              "system": "http://loinc.org"
            }
          ]
        },
        "effectiveDateTime": "2022-04-13T09:46:00Z",
        "valueQuantity": {
          "value": 4.67,
          "unit": "x10e3/mcL"
        },
        "interpretation": [
          {
            "coding": [
              {
                "code": "H",
                "display": "High",
                "system": "http://terminology.hl7.org/CodeSystem/v3-ObservationInterpretation"
              }
            ]
          }
        ],
        "subject": {
          "reference": "Patient/e962c108-813b-41c5-9f7e-985de7265dcb"
        }
      },
      "request": {
        "method": "PUT",
        "url": "Observation/e5978ea1-fec6-e6e8-5475-4c31c3c8abd7"
      }
    },
    {
      "fullUrl": "urn:uuid:b3c7d52f-b0d1-e697-e670-1f27fabc066e",
      "resource": {
        "resourceType": "DiagnosticReport",
        "id": "b3c7d52f-b0d1-e697-e670-1f27fabc066e",
        "identifier": [
          {
            "system": "urn:ietf:rfc:3986",
            "value": "urn:uuid:bc9a0edf-31ea-412e-beac-5aec8b1f899c"
          }
        ],
        "status": "final",
        "code": {
          "coding": [
            {
              "code": "5905-5",
              "system": "http://loinc.org"
            }
          ]
        },
        "subject": {
          "reference": "Patient/e962c108-813b-41c5-9f7e-985de7265dcb"
        },
        "result": [
          {
            "reference": "Observation/eae839eb-9d6e-c9a8-1ac4-3dfbc3fac67d"
          }
        ],
        "meta": {
          "source": [
            "ecr"
          ]
        }
      },
      "request": {
        "method": "PUT",
        "url": "DiagnosticReport/b3c7d52f-b0d1-e697-e670-1f27fabc066e"
      }
    },
    {
      "fullUrl": "urn:uuid:eae839eb-9d6e-c9a8-1ac4-3dfbc3fac67d",
      "resource": {
        "resourceType": "Observation",
        "id": "eae839eb-9d6e-c9a8-1ac4-3dfbc3fac67d",
        "meta": {
          "profile": [
            "http://hl7.org/fhir/us/core/StructureDefinition/us-core-observationresults"
          ],
          "source": [
            "ecr"
          ]
        },
        "identifier": [
          {
            "system": "urn:oid:2.16.840.1.113883",
            "value": "https://fhir-ehr.cerner.com/r4/da0b5d99-573c-4f5e-aaf6-8d39fa93d033/Observation/M-19269602312/_history/1"
          }
        ],
        "category": [
          {
            "coding": [
              {
                "system": "http://terminology.hl7.org/CodeSystem/observation-category",
                "code": "laboratory"
              }
            ]
          }
        ],
        "status": "final",
        "code": {
          "coding": [
            {
              "code": "5905-5",
              "system": "http://loinc.org"
            }
          ]
        },
        "effectiveDateTime": "2022-04-13T09:46:00Z",
        "valueQuantity": {
          "value": 8.4,
          "unit": "%"
        },
        "subject": {
          "reference": "Patient/e962c108-813b-41c5-9f7e-985de7265dcb"
        }
      },
      "request": {
        "method": "PUT",
        "url": "Observation/eae839eb-9d6e-c9a8-1ac4-3dfbc3fac67d"
      }
    },
    {
      "fullUrl": "urn:uuid:164d606f-5381-b517-6175-be7fb670f9dd",
      "resource": {
        "resourceType": "DiagnosticReport",
        "id": "164d606f-5381-b517-6175-be7fb670f9dd",
        "identifier": [
          {
            "system": "urn:ietf:rfc:3986",
            "value": "urn:uuid:debfb8f6-1cae-4778-aea9-f0adfefbf136"
          }
        ],
        "status": "final",
        "code": {
          "coding": [
            {
              "code": "788-0",
              "system": "http://loinc.org"
            }
          ]
        },
        "subject": {
          "reference": "Patient/e962c108-813b-41c5-9f7e-985de7265dcb"
        },
        "result": [
          {
            "reference": "Observation/7bbbf1a2-c4b2-c3ad-1832-788db7fa92fd"
          }
        ],
        "meta": {
          "source": [
            "ecr"
          ]
        }
      },
      "request": {
        "method": "PUT",
        "url": "DiagnosticReport/164d606f-5381-b517-6175-be7fb670f9dd"
      }
    },
    {
      "fullUrl": "urn:uuid:7bbbf1a2-c4b2-c3ad-1832-788db7fa92fd",
      "resource": {
        "resourceType": "Observation",
        "id": "7bbbf1a2-c4b2-c3ad-1832-788db7fa92fd",
        "meta": {
          "profile": [
            "http://hl7.org/fhir/us/core/StructureDefinition/us-core-observationresults"
          ],
          "source": [
            "ecr"
          ]
        },
        "identifier": [
          {
            "system": "urn:oid:2.16.840.1.113883",
            "value": "https://fhir-ehr.cerner.com/r4/da0b5d99-573c-4f5e-aaf6-8d39fa93d033/Observation/M-19269505782/_history/1"
          }
        ],
        "category": [
          {
            "coding": [
              {
                "system": "http://terminology.hl7.org/CodeSystem/observation-category",
                "code": "laboratory"
              }
            ]
          }
        ],
        "status": "final",
        "code": {
          "coding": [
            {
              "code": "788-0",
              "system": "http://loinc.org"
            }
          ]
        },
        "effectiveDateTime": "2022-04-13T09:46:00Z",
        "valueQuantity": {
          "value": 17.5,
          "unit": "%"
        },
        "interpretation": [
          {
            "coding": [
              {
                "code": "H",
                "display": "High",
                "system": "http://terminology.hl7.org/CodeSystem/v3-ObservationInterpretation"
              }
            ]
          }
        ],
        "subject": {
          "reference": "Patient/e962c108-813b-41c5-9f7e-985de7265dcb"
        }
      },
      "request": {
        "method": "PUT",
        "url": "Observation/7bbbf1a2-c4b2-c3ad-1832-788db7fa92fd"
      }
    },
    {
      "fullUrl": "urn:uuid:237facce-6ad0-e93a-8f0c-4c5eec231a50",
      "resource": {
        "resourceType": "DiagnosticReport",
        "id": "237facce-6ad0-e93a-8f0c-4c5eec231a50",
        "identifier": [
          {
            "system": "urn:ietf:rfc:3986",
            "value": "urn:uuid:cf4646b5-eddb-49d3-9a01-5e98c0360d26"
          }
        ],
        "status": "final",
        "code": {
          "coding": [
            {
              "code": "71695-1",
              "system": "http://loinc.org"
            }
          ]
        },
        "subject": {
          "reference": "Patient/e962c108-813b-41c5-9f7e-985de7265dcb"
        },
        "result": [
          {
            "reference": "Observation/f17a85de-82fa-d809-2c99-6068baa126b4"
          }
        ],
        "meta": {
          "source": [
            "ecr"
          ]
        }
      },
      "request": {
        "method": "PUT",
        "url": "DiagnosticReport/237facce-6ad0-e93a-8f0c-4c5eec231a50"
      }
    },
    {
      "fullUrl": "urn:uuid:f17a85de-82fa-d809-2c99-6068baa126b4",
      "resource": {
        "resourceType": "Observation",
        "id": "f17a85de-82fa-d809-2c99-6068baa126b4",
        "meta": {
          "profile": [
            "http://hl7.org/fhir/us/core/StructureDefinition/us-core-observationresults"
          ],
          "source": [
            "ecr"
          ]
        },
        "identifier": [
          {
            "system": "urn:oid:2.16.840.1.113883",
            "value": "https://fhir-ehr.cerner.com/r4/da0b5d99-573c-4f5e-aaf6-8d39fa93d033/Observation/M-19269602330/_history/1"
          }
        ],
        "category": [
          {
            "coding": [
              {
                "system": "http://terminology.hl7.org/CodeSystem/observation-category",
                "code": "laboratory"
              }
            ]
          }
        ],
        "status": "final",
        "code": {
          "coding": [
            {
              "code": "71695-1",
              "system": "http://loinc.org"
            }
          ]
        },
        "effectiveDateTime": "2022-04-13T09:46:00Z",
        "valueQuantity": {
          "value": 0.2,
          "unit": "%"
        },
        "interpretation": [
          {
            "coding": [
              {
                "code": "N",
                "display": "Normal",
                "system": "http://terminology.hl7.org/CodeSystem/v3-ObservationInterpretation"
              }
            ]
          }
        ],
        "subject": {
          "reference": "Patient/e962c108-813b-41c5-9f7e-985de7265dcb"
        }
      },
      "request": {
        "method": "PUT",
        "url": "Observation/f17a85de-82fa-d809-2c99-6068baa126b4"
      }
    },
    {
      "fullUrl": "urn:uuid:2c742185-ffea-2cb0-1b61-87706f24cfea",
      "resource": {
        "resourceType": "DiagnosticReport",
        "id": "2c742185-ffea-2cb0-1b61-87706f24cfea",
        "identifier": [
          {
            "system": "urn:ietf:rfc:3986",
            "value": "urn:uuid:1d63664c-f130-48b5-b4d9-913ab625b94c"
          }
        ],
        "status": "final",
        "code": {
          "coding": [
            {
              "code": "711-2",
              "system": "http://loinc.org"
            }
          ]
        },
        "subject": {
          "reference": "Patient/e962c108-813b-41c5-9f7e-985de7265dcb"
        },
        "result": [
          {
            "reference": "Observation/d4b48186-6821-f30d-991d-1bd6f3b6691a"
          }
        ],
        "meta": {
          "source": [
            "ecr"
          ]
        }
      },
      "request": {
        "method": "PUT",
        "url": "DiagnosticReport/2c742185-ffea-2cb0-1b61-87706f24cfea"
      }
    },
    {
      "fullUrl": "urn:uuid:d4b48186-6821-f30d-991d-1bd6f3b6691a",
      "resource": {
        "resourceType": "Observation",
        "id": "d4b48186-6821-f30d-991d-1bd6f3b6691a",
        "meta": {
          "profile": [
            "http://hl7.org/fhir/us/core/StructureDefinition/us-core-observationresults"
          ],
          "source": [
            "ecr"
          ]
        },
        "identifier": [
          {
            "system": "urn:oid:2.16.840.1.113883",
            "value": "https://fhir-ehr.cerner.com/r4/da0b5d99-573c-4f5e-aaf6-8d39fa93d033/Observation/M-19269602324/_history/1"
          }
        ],
        "category": [
          {
            "coding": [
              {
                "system": "http://terminology.hl7.org/CodeSystem/observation-category",
                "code": "laboratory"
              }
            ]
          }
        ],
        "status": "final",
        "code": {
          "coding": [
            {
              "code": "711-2",
              "system": "http://loinc.org"
            }
          ]
        },
        "effectiveDateTime": "2022-04-13T09:46:00Z",
        "valueQuantity": {
          "value": 0.11,
          "unit": "x10e3/mcL"
        },
        "interpretation": [
          {
            "coding": [
              {
                "code": "N",
                "display": "Normal",
                "system": "http://terminology.hl7.org/CodeSystem/v3-ObservationInterpretation"
              }
            ]
          }
        ],
        "subject": {
          "reference": "Patient/e962c108-813b-41c5-9f7e-985de7265dcb"
        }
      },
      "request": {
        "method": "PUT",
        "url": "Observation/d4b48186-6821-f30d-991d-1bd6f3b6691a"
      }
    },
    {
      "fullUrl": "urn:uuid:1d331342-fa63-ee0e-90b3-1e1d59f5d6f8",
      "resource": {
        "resourceType": "DiagnosticReport",
        "id": "1d331342-fa63-ee0e-90b3-1e1d59f5d6f8",
        "identifier": [
          {
            "system": "urn:ietf:rfc:3986",
            "value": "urn:uuid:c59ce549-3392-4c46-aa87-ee7500c571aa"
          }
        ],
        "status": "final",
        "code": {
          "coding": [
            {
              "code": "2075-0",
              "system": "http://loinc.org"
            }
          ]
        },
        "subject": {
          "reference": "Patient/e962c108-813b-41c5-9f7e-985de7265dcb"
        },
        "result": [
          {
            "reference": "Observation/a1b7f8a7-7536-d96d-b436-74817230c55c"
          }
        ],
        "meta": {
          "source": [
            "ecr"
          ]
        }
      },
      "request": {
        "method": "PUT",
        "url": "DiagnosticReport/1d331342-fa63-ee0e-90b3-1e1d59f5d6f8"
      }
    },
    {
      "fullUrl": "urn:uuid:a1b7f8a7-7536-d96d-b436-74817230c55c",
      "resource": {
        "resourceType": "Observation",
        "id": "a1b7f8a7-7536-d96d-b436-74817230c55c",
        "meta": {
          "profile": [
            "http://hl7.org/fhir/us/core/StructureDefinition/us-core-observationresults"
          ],
          "source": [
            "ecr"
          ]
        },
        "identifier": [
          {
            "system": "urn:oid:2.16.840.1.113883",
            "value": "https://fhir-ehr.cerner.com/r4/da0b5d99-573c-4f5e-aaf6-8d39fa93d033/Observation/M-19269550263/_history/1"
          }
        ],
        "category": [
          {
            "coding": [
              {
                "system": "http://terminology.hl7.org/CodeSystem/observation-category",
                "code": "laboratory"
              }
            ]
          }
        ],
        "status": "final",
        "code": {
          "coding": [
            {
              "code": "2075-0",
              "system": "http://loinc.org"
            }
          ]
        },
        "effectiveDateTime": "2022-04-13T09:46:00Z",
        "valueQuantity": {
          "value": 105,
          "unit": "mmol/L"
        },
        "interpretation": [
          {
            "coding": [
              {
                "code": "N",
                "display": "Normal",
                "system": "http://terminology.hl7.org/CodeSystem/v3-ObservationInterpretation"
              }
            ]
          }
        ],
        "subject": {
          "reference": "Patient/e962c108-813b-41c5-9f7e-985de7265dcb"
        }
      },
      "request": {
        "method": "PUT",
        "url": "Observation/a1b7f8a7-7536-d96d-b436-74817230c55c"
      }
    },
    {
      "fullUrl": "urn:uuid:f49d6d79-8bf8-d75b-65cc-27fb96a3782b",
      "resource": {
        "resourceType": "DiagnosticReport",
        "id": "f49d6d79-8bf8-d75b-65cc-27fb96a3782b",
        "identifier": [
          {
            "system": "urn:ietf:rfc:3986",
            "value": "urn:uuid:810a7578-af20-4093-b8b3-7eb6c2b8b6a6"
          }
        ],
        "status": "final",
        "code": {
          "coding": [
            {
              "code": "3094-0",
              "system": "http://loinc.org"
            }
          ]
        },
        "subject": {
          "reference": "Patient/e962c108-813b-41c5-9f7e-985de7265dcb"
        },
        "result": [
          {
            "reference": "Observation/b242c5d7-74a7-6595-1783-7f6ee197f901"
          }
        ],
        "meta": {
          "source": [
            "ecr"
          ]
        }
      },
      "request": {
        "method": "PUT",
        "url": "DiagnosticReport/f49d6d79-8bf8-d75b-65cc-27fb96a3782b"
      }
    },
    {
      "fullUrl": "urn:uuid:b242c5d7-74a7-6595-1783-7f6ee197f901",
      "resource": {
        "resourceType": "Observation",
        "id": "b242c5d7-74a7-6595-1783-7f6ee197f901",
        "meta": {
          "profile": [
            "http://hl7.org/fhir/us/core/StructureDefinition/us-core-observationresults"
          ],
          "source": [
            "ecr"
          ]
        },
        "identifier": [
          {
            "system": "urn:oid:2.16.840.1.113883",
            "value": "https://fhir-ehr.cerner.com/r4/da0b5d99-573c-4f5e-aaf6-8d39fa93d033/Observation/M-19269550271/_history/1"
          }
        ],
        "category": [
          {
            "coding": [
              {
                "system": "http://terminology.hl7.org/CodeSystem/observation-category",
                "code": "laboratory"
              }
            ]
          }
        ],
        "status": "final",
        "code": {
          "coding": [
            {
              "code": "3094-0",
              "system": "http://loinc.org"
            }
          ]
        },
        "effectiveDateTime": "2022-04-13T09:46:00Z",
        "valueQuantity": {
          "value": 23,
          "unit": "mg/dL"
        },
        "interpretation": [
          {
            "coding": [
              {
                "code": "H",
                "display": "High",
                "system": "http://terminology.hl7.org/CodeSystem/v3-ObservationInterpretation"
              }
            ]
          }
        ],
        "subject": {
          "reference": "Patient/e962c108-813b-41c5-9f7e-985de7265dcb"
        }
      },
      "request": {
        "method": "PUT",
        "url": "Observation/b242c5d7-74a7-6595-1783-7f6ee197f901"
      }
    },
    {
      "fullUrl": "urn:uuid:ba872637-99ac-e40c-9dff-1fe6040eacf0",
      "resource": {
        "resourceType": "DiagnosticReport",
        "id": "ba872637-99ac-e40c-9dff-1fe6040eacf0",
        "identifier": [
          {
            "system": "urn:ietf:rfc:3986",
            "value": "urn:uuid:e42f0641-8fd0-45fb-81ee-d9f14cc025c6"
          }
        ],
        "status": "final",
        "code": {
          "coding": [
            {
              "code": "777-3",
              "system": "http://loinc.org"
            }
          ]
        },
        "subject": {
          "reference": "Patient/e962c108-813b-41c5-9f7e-985de7265dcb"
        },
        "result": [
          {
            "reference": "Observation/4ced71d6-ad9e-c3b4-9142-4ee295fc2e17"
          }
        ],
        "meta": {
          "source": [
            "ecr"
          ]
        }
      },
      "request": {
        "method": "PUT",
        "url": "DiagnosticReport/ba872637-99ac-e40c-9dff-1fe6040eacf0"
      }
    },
    {
      "fullUrl": "urn:uuid:4ced71d6-ad9e-c3b4-9142-4ee295fc2e17",
      "resource": {
        "resourceType": "Observation",
        "id": "4ced71d6-ad9e-c3b4-9142-4ee295fc2e17",
        "meta": {
          "profile": [
            "http://hl7.org/fhir/us/core/StructureDefinition/us-core-observationresults"
          ],
          "source": [
            "ecr"
          ]
        },
        "identifier": [
          {
            "system": "urn:oid:2.16.840.1.113883",
            "value": "https://fhir-ehr.cerner.com/r4/da0b5d99-573c-4f5e-aaf6-8d39fa93d033/Observation/M-19269505776/_history/1"
          }
        ],
        "category": [
          {
            "coding": [
              {
                "system": "http://terminology.hl7.org/CodeSystem/observation-category",
                "code": "laboratory"
              }
            ]
          }
        ],
        "status": "final",
        "code": {
          "coding": [
            {
              "code": "777-3",
              "system": "http://loinc.org"
            }
          ]
        },
        "effectiveDateTime": "2022-04-13T09:46:00Z",
        "valueQuantity": {
          "value": 315,
          "unit": "x10e3/mcL"
        },
        "interpretation": [
          {
            "coding": [
              {
                "code": "N",
                "display": "Normal",
                "system": "http://terminology.hl7.org/CodeSystem/v3-ObservationInterpretation"
              }
            ]
          }
        ],
        "subject": {
          "reference": "Patient/e962c108-813b-41c5-9f7e-985de7265dcb"
        }
      },
      "request": {
        "method": "PUT",
        "url": "Observation/4ced71d6-ad9e-c3b4-9142-4ee295fc2e17"
      }
    },
    {
      "fullUrl": "urn:uuid:42a484c9-aaa2-0f46-44fb-a083ecc1cc5a",
      "resource": {
        "resourceType": "DiagnosticReport",
        "id": "42a484c9-aaa2-0f46-44fb-a083ecc1cc5a",
        "identifier": [
          {
            "system": "urn:ietf:rfc:3986",
            "value": "urn:uuid:51631b05-fffa-41b5-b23a-8031d5dbbc95"
          }
        ],
        "status": "final",
        "code": {
          "coding": [
            {
              "code": "6690-2",
              "system": "http://loinc.org"
            }
          ]
        },
        "subject": {
          "reference": "Patient/e962c108-813b-41c5-9f7e-985de7265dcb"
        },
        "result": [
          {
            "reference": "Observation/cd894b93-2504-2748-b955-f5ff523887ba"
          }
        ],
        "meta": {
          "source": [
            "ecr"
          ]
        }
      },
      "request": {
        "method": "PUT",
        "url": "DiagnosticReport/42a484c9-aaa2-0f46-44fb-a083ecc1cc5a"
      }
    },
    {
      "fullUrl": "urn:uuid:cd894b93-2504-2748-b955-f5ff523887ba",
      "resource": {
        "resourceType": "Observation",
        "id": "cd894b93-2504-2748-b955-f5ff523887ba",
        "meta": {
          "profile": [
            "http://hl7.org/fhir/us/core/StructureDefinition/us-core-observationresults"
          ],
          "source": [
            "ecr"
          ]
        },
        "identifier": [
          {
            "system": "urn:oid:2.16.840.1.113883",
            "value": "https://fhir-ehr.cerner.com/r4/da0b5d99-573c-4f5e-aaf6-8d39fa93d033/Observation/M-19269505762/_history/1"
          }
        ],
        "category": [
          {
            "coding": [
              {
                "system": "http://terminology.hl7.org/CodeSystem/observation-category",
                "code": "laboratory"
              }
            ]
          }
        ],
        "status": "final",
        "code": {
          "coding": [
            {
              "code": "6690-2",
              "system": "http://loinc.org"
            }
          ]
        },
        "effectiveDateTime": "2022-04-13T09:46:00Z",
        "valueQuantity": {
          "value": 13.68,
          "unit": "x10e3/mcL"
        },
        "interpretation": [
          {
            "coding": [
              {
                "code": "H",
                "display": "High",
                "system": "http://terminology.hl7.org/CodeSystem/v3-ObservationInterpretation"
              }
            ]
          }
        ],
        "subject": {
          "reference": "Patient/e962c108-813b-41c5-9f7e-985de7265dcb"
        }
      },
      "request": {
        "method": "PUT",
        "url": "Observation/cd894b93-2504-2748-b955-f5ff523887ba"
      }
    },
    {
      "fullUrl": "urn:uuid:d76d67de-2111-ab39-06ff-0a5b45b5f88f",
      "resource": {
        "resourceType": "DiagnosticReport",
        "id": "d76d67de-2111-ab39-06ff-0a5b45b5f88f",
        "identifier": [
          {
            "system": "urn:ietf:rfc:3986",
            "value": "urn:uuid:9d9378e9-b87f-4f48-ac7d-0be3341024fa"
          }
        ],
        "status": "final",
        "code": {
          "coding": [
            {
              "code": "2885-2",
              "system": "http://loinc.org"
            }
          ]
        },
        "subject": {
          "reference": "Patient/e962c108-813b-41c5-9f7e-985de7265dcb"
        },
        "result": [
          {
            "reference": "Observation/70d289aa-7f9b-bf1e-ecdf-c4d09e4a5093"
          }
        ],
        "meta": {
          "source": [
            "ecr"
          ]
        }
      },
      "request": {
        "method": "PUT",
        "url": "DiagnosticReport/d76d67de-2111-ab39-06ff-0a5b45b5f88f"
      }
    },
    {
      "fullUrl": "urn:uuid:70d289aa-7f9b-bf1e-ecdf-c4d09e4a5093",
      "resource": {
        "resourceType": "Observation",
        "id": "70d289aa-7f9b-bf1e-ecdf-c4d09e4a5093",
        "meta": {
          "profile": [
            "http://hl7.org/fhir/us/core/StructureDefinition/us-core-observationresults"
          ],
          "source": [
            "ecr"
          ]
        },
        "identifier": [
          {
            "system": "urn:oid:2.16.840.1.113883",
            "value": "https://fhir-ehr.cerner.com/r4/da0b5d99-573c-4f5e-aaf6-8d39fa93d033/Observation/M-19269550299/_history/1"
          }
        ],
        "category": [
          {
            "coding": [
              {
                "system": "http://terminology.hl7.org/CodeSystem/observation-category",
                "code": "laboratory"
              }
            ]
          }
        ],
        "status": "final",
        "code": {
          "coding": [
            {
              "code": "2885-2",
              "system": "http://loinc.org"
            }
          ]
        },
        "effectiveDateTime": "2022-04-13T09:46:00Z",
        "valueQuantity": {
          "value": 7.5,
          "unit": "gm/dL"
        },
        "interpretation": [
          {
            "coding": [
              {
                "code": "N",
                "display": "Normal",
                "system": "http://terminology.hl7.org/CodeSystem/v3-ObservationInterpretation"
              }
            ]
          }
        ],
        "subject": {
          "reference": "Patient/e962c108-813b-41c5-9f7e-985de7265dcb"
        }
      },
      "request": {
        "method": "PUT",
        "url": "Observation/70d289aa-7f9b-bf1e-ecdf-c4d09e4a5093"
      }
    },
    {
      "fullUrl": "urn:uuid:2ae054ae-2b90-09ae-787c-00620966f01b",
      "resource": {
        "resourceType": "DiagnosticReport",
        "id": "2ae054ae-2b90-09ae-787c-00620966f01b",
        "identifier": [
          {
            "system": "urn:ietf:rfc:3986",
            "value": "urn:uuid:e765bb6e-c03f-4847-932d-e40cf4a0bf39"
          }
        ],
        "status": "final",
        "code": {
          "coding": [
            {
              "code": "789-8",
              "system": "http://loinc.org"
            }
          ]
        },
        "subject": {
          "reference": "Patient/e962c108-813b-41c5-9f7e-985de7265dcb"
        },
        "result": [
          {
            "reference": "Observation/05ba4e77-2ddf-8ab6-d92c-8e53fa1d55ed"
          }
        ],
        "meta": {
          "source": [
            "ecr"
          ]
        }
      },
      "request": {
        "method": "PUT",
        "url": "DiagnosticReport/2ae054ae-2b90-09ae-787c-00620966f01b"
      }
    },
    {
      "fullUrl": "urn:uuid:05ba4e77-2ddf-8ab6-d92c-8e53fa1d55ed",
      "resource": {
        "resourceType": "Observation",
        "id": "05ba4e77-2ddf-8ab6-d92c-8e53fa1d55ed",
        "meta": {
          "profile": [
            "http://hl7.org/fhir/us/core/StructureDefinition/us-core-observationresults"
          ],
          "source": [
            "ecr"
          ]
        },
        "identifier": [
          {
            "system": "urn:oid:2.16.840.1.113883",
            "value": "https://fhir-ehr.cerner.com/r4/da0b5d99-573c-4f5e-aaf6-8d39fa93d033/Observation/M-19269505764/_history/1"
          }
        ],
        "category": [
          {
            "coding": [
              {
                "system": "http://terminology.hl7.org/CodeSystem/observation-category",
                "code": "laboratory"
              }
            ]
          }
        ],
        "status": "final",
        "code": {
          "coding": [
            {
              "code": "789-8",
              "system": "http://loinc.org"
            }
          ]
        },
        "effectiveDateTime": "2022-04-13T09:46:00Z",
        "valueQuantity": {
          "value": 5.41,
          "unit": "x10e6/mcL"
        },
        "interpretation": [
          {
            "coding": [
              {
                "code": "N",
                "display": "Normal",
                "system": "http://terminology.hl7.org/CodeSystem/v3-ObservationInterpretation"
              }
            ]
          }
        ],
        "subject": {
          "reference": "Patient/e962c108-813b-41c5-9f7e-985de7265dcb"
        }
      },
      "request": {
        "method": "PUT",
        "url": "Observation/05ba4e77-2ddf-8ab6-d92c-8e53fa1d55ed"
      }
    },
    {
      "fullUrl": "urn:uuid:1184b16d-351e-9837-7ae0-4b2c31d7a47e",
      "resource": {
        "resourceType": "DiagnosticReport",
        "id": "1184b16d-351e-9837-7ae0-4b2c31d7a47e",
        "identifier": [
          {
            "system": "urn:ietf:rfc:3986",
            "value": "urn:uuid:ff494cb9-cba8-4f6b-ac78-5a5d17077793"
          }
        ],
        "status": "final",
        "code": {
          "coding": [
            {
              "code": "14979-9",
              "system": "http://loinc.org"
            }
          ]
        },
        "subject": {
          "reference": "Patient/e962c108-813b-41c5-9f7e-985de7265dcb"
        },
        "result": [
          {
            "reference": "Observation/a7d3def7-6bec-a8f8-d328-04c40aadecc9"
          }
        ],
        "meta": {
          "source": [
            "ecr"
          ]
        }
      },
      "request": {
        "method": "PUT",
        "url": "DiagnosticReport/1184b16d-351e-9837-7ae0-4b2c31d7a47e"
      }
    },
    {
      "fullUrl": "urn:uuid:a7d3def7-6bec-a8f8-d328-04c40aadecc9",
      "resource": {
        "resourceType": "Observation",
        "id": "a7d3def7-6bec-a8f8-d328-04c40aadecc9",
        "meta": {
          "profile": [
            "http://hl7.org/fhir/us/core/StructureDefinition/us-core-observationresults"
          ],
          "source": [
            "ecr"
          ]
        },
        "identifier": [
          {
            "system": "urn:oid:2.16.840.1.113883",
            "value": "https://fhir-ehr.cerner.com/r4/da0b5d99-573c-4f5e-aaf6-8d39fa93d033/Observation/M-19269612407/_history/1"
          }
        ],
        "category": [
          {
            "coding": [
              {
                "system": "http://terminology.hl7.org/CodeSystem/observation-category",
                "code": "laboratory"
              }
            ]
          }
        ],
        "status": "final",
        "code": {
          "coding": [
            {
              "code": "14979-9",
              "system": "http://loinc.org"
            }
          ]
        },
        "effectiveDateTime": "2022-04-13T09:46:00Z",
        "valueQuantity": {
          "value": 30,
          "unit": "Seconds"
        },
        "interpretation": [
          {
            "coding": [
              {
                "code": "N",
                "display": "Normal",
                "system": "http://terminology.hl7.org/CodeSystem/v3-ObservationInterpretation"
              }
            ]
          }
        ],
        "subject": {
          "reference": "Patient/e962c108-813b-41c5-9f7e-985de7265dcb"
        }
      },
      "request": {
        "method": "PUT",
        "url": "Observation/a7d3def7-6bec-a8f8-d328-04c40aadecc9"
      }
    },
    {
      "fullUrl": "urn:uuid:7a3ab9e5-6426-bdbe-ba4f-abaad4150b07",
      "resource": {
        "resourceType": "DiagnosticReport",
        "id": "7a3ab9e5-6426-bdbe-ba4f-abaad4150b07",
        "identifier": [
          {
            "system": "urn:ietf:rfc:3986",
            "value": "urn:uuid:414413e4-5728-4157-b158-f3e82ac29e27"
          }
        ],
        "status": "final",
        "code": {
          "coding": [
            {
              "code": "5902-2",
              "system": "http://loinc.org"
            }
          ]
        },
        "subject": {
          "reference": "Patient/e962c108-813b-41c5-9f7e-985de7265dcb"
        },
        "result": [
          {
            "reference": "Observation/244ddfa2-dd36-d911-97a9-7b3f8365b190"
          }
        ],
        "meta": {
          "source": [
            "ecr"
          ]
        }
      },
      "request": {
        "method": "PUT",
        "url": "DiagnosticReport/7a3ab9e5-6426-bdbe-ba4f-abaad4150b07"
      }
    },
    {
      "fullUrl": "urn:uuid:244ddfa2-dd36-d911-97a9-7b3f8365b190",
      "resource": {
        "resourceType": "Observation",
        "id": "244ddfa2-dd36-d911-97a9-7b3f8365b190",
        "meta": {
          "profile": [
            "http://hl7.org/fhir/us/core/StructureDefinition/us-core-observationresults"
          ],
          "source": [
            "ecr"
          ]
        },
        "identifier": [
          {
            "system": "urn:oid:2.16.840.1.113883",
            "value": "https://fhir-ehr.cerner.com/r4/da0b5d99-573c-4f5e-aaf6-8d39fa93d033/Observation/M-19269623609/_history/1"
          }
        ],
        "category": [
          {
            "coding": [
              {
                "system": "http://terminology.hl7.org/CodeSystem/observation-category",
                "code": "laboratory"
              }
            ]
          }
        ],
        "status": "final",
        "code": {
          "coding": [
            {
              "code": "5902-2",
              "system": "http://loinc.org"
            }
          ]
        },
        "effectiveDateTime": "2022-04-13T09:46:00Z",
        "valueQuantity": {
          "value": 10.8,
          "unit": "Seconds"
        },
        "interpretation": [
          {
            "coding": [
              {
                "code": "N",
                "display": "Normal",
                "system": "http://terminology.hl7.org/CodeSystem/v3-ObservationInterpretation"
              }
            ]
          }
        ],
        "subject": {
          "reference": "Patient/e962c108-813b-41c5-9f7e-985de7265dcb"
        }
      },
      "request": {
        "method": "PUT",
        "url": "Observation/244ddfa2-dd36-d911-97a9-7b3f8365b190"
      }
    },
    {
      "fullUrl": "urn:uuid:d9dc3cc1-0a23-d0c9-80c3-9ccab724e9dc",
      "resource": {
        "resourceType": "DiagnosticReport",
        "id": "d9dc3cc1-0a23-d0c9-80c3-9ccab724e9dc",
        "identifier": [
          {
            "system": "urn:ietf:rfc:3986",
            "value": "urn:uuid:f0f7348c-f5ba-4906-841f-db265a89dabb"
          }
        ],
        "status": "final",
        "code": {
          "coding": [
            {
              "code": "32623-1",
              "system": "http://loinc.org"
            }
          ]
        },
        "subject": {
          "reference": "Patient/e962c108-813b-41c5-9f7e-985de7265dcb"
        },
        "result": [
          {
            "reference": "Observation/e5aa0a6b-9119-af83-bbc9-d4eca6c9b313"
          }
        ],
        "meta": {
          "source": [
            "ecr"
          ]
        }
      },
      "request": {
        "method": "PUT",
        "url": "DiagnosticReport/d9dc3cc1-0a23-d0c9-80c3-9ccab724e9dc"
      }
    },
    {
      "fullUrl": "urn:uuid:e5aa0a6b-9119-af83-bbc9-d4eca6c9b313",
      "resource": {
        "resourceType": "Observation",
        "id": "e5aa0a6b-9119-af83-bbc9-d4eca6c9b313",
        "meta": {
          "profile": [
            "http://hl7.org/fhir/us/core/StructureDefinition/us-core-observationresults"
          ],
          "source": [
            "ecr"
          ]
        },
        "identifier": [
          {
            "system": "urn:oid:2.16.840.1.113883",
            "value": "https://fhir-ehr.cerner.com/r4/da0b5d99-573c-4f5e-aaf6-8d39fa93d033/Observation/M-19269505778/_history/1"
          }
        ],
        "category": [
          {
            "coding": [
              {
                "system": "http://terminology.hl7.org/CodeSystem/observation-category",
                "code": "laboratory"
              }
            ]
          }
        ],
        "status": "final",
        "code": {
          "coding": [
            {
              "code": "32623-1",
              "system": "http://loinc.org"
            }
          ]
        },
        "effectiveDateTime": "2022-04-13T09:46:00Z",
        "valueQuantity": {
          "value": 8.3,
          "unit": "Femtoliters"
        },
        "interpretation": [
          {
            "coding": [
              {
                "code": "N",
                "display": "Normal",
                "system": "http://terminology.hl7.org/CodeSystem/v3-ObservationInterpretation"
              }
            ]
          }
        ],
        "subject": {
          "reference": "Patient/e962c108-813b-41c5-9f7e-985de7265dcb"
        }
      },
      "request": {
        "method": "PUT",
        "url": "Observation/e5aa0a6b-9119-af83-bbc9-d4eca6c9b313"
      }
    },
    {
      "fullUrl": "urn:uuid:ede6213c-1e6f-f1ec-5701-8e8b4852e004",
      "resource": {
        "resourceType": "DiagnosticReport",
        "id": "ede6213c-1e6f-f1ec-5701-8e8b4852e004",
        "identifier": [
          {
            "system": "urn:ietf:rfc:3986",
            "value": "urn:uuid:776e05ab-01e9-4c0b-88ca-31a6d9b24a9a"
          }
        ],
        "status": "final",
        "code": {
          "coding": [
            {
              "code": "787-2",
              "system": "http://loinc.org"
            }
          ]
        },
        "subject": {
          "reference": "Patient/e962c108-813b-41c5-9f7e-985de7265dcb"
        },
        "result": [
          {
            "reference": "Observation/1850e9fa-7ef5-6507-e975-b99aa75a098f"
          }
        ],
        "meta": {
          "source": [
            "ecr"
          ]
        }
      },
      "request": {
        "method": "PUT",
        "url": "DiagnosticReport/ede6213c-1e6f-f1ec-5701-8e8b4852e004"
      }
    },
    {
      "fullUrl": "urn:uuid:1850e9fa-7ef5-6507-e975-b99aa75a098f",
      "resource": {
        "resourceType": "Observation",
        "id": "1850e9fa-7ef5-6507-e975-b99aa75a098f",
        "meta": {
          "profile": [
            "http://hl7.org/fhir/us/core/StructureDefinition/us-core-observationresults"
          ],
          "source": [
            "ecr"
          ]
        },
        "identifier": [
          {
            "system": "urn:oid:2.16.840.1.113883",
            "value": "https://fhir-ehr.cerner.com/r4/da0b5d99-573c-4f5e-aaf6-8d39fa93d033/Observation/M-19269505770/_history/1"
          }
        ],
        "category": [
          {
            "coding": [
              {
                "system": "http://terminology.hl7.org/CodeSystem/observation-category",
                "code": "laboratory"
              }
            ]
          }
        ],
        "status": "final",
        "code": {
          "coding": [
            {
              "code": "787-2",
              "system": "http://loinc.org"
            }
          ]
        },
        "effectiveDateTime": "2022-04-13T09:46:00Z",
        "valueQuantity": {
          "value": 72.3,
          "unit": "Femtoliters"
        },
        "interpretation": [
          {
            "coding": [
              {
                "code": "L",
                "display": "Low",
                "system": "http://terminology.hl7.org/CodeSystem/v3-ObservationInterpretation"
              }
            ]
          }
        ],
        "subject": {
          "reference": "Patient/e962c108-813b-41c5-9f7e-985de7265dcb"
        }
      },
      "request": {
        "method": "PUT",
        "url": "Observation/1850e9fa-7ef5-6507-e975-b99aa75a098f"
      }
    },
    {
      "fullUrl": "urn:uuid:109ead02-11b4-bea6-c0f0-933fb93bed78",
      "resource": {
        "resourceType": "DiagnosticReport",
        "id": "109ead02-11b4-bea6-c0f0-933fb93bed78",
        "identifier": [
          {
            "system": "urn:ietf:rfc:3986",
            "value": "urn:uuid:d8642982-995c-4dda-9a8a-4a95f4e5f0a7"
          }
        ],
        "status": "final",
        "code": {
          "coding": [
            {
              "code": "786-4",
              "system": "http://loinc.org"
            }
          ]
        },
        "subject": {
          "reference": "Patient/e962c108-813b-41c5-9f7e-985de7265dcb"
        },
        "result": [
          {
            "reference": "Observation/7e081ec9-af06-a434-a0ca-f823aff8bae4"
          }
        ],
        "meta": {
          "source": [
            "ecr"
          ]
        }
      },
      "request": {
        "method": "PUT",
        "url": "DiagnosticReport/109ead02-11b4-bea6-c0f0-933fb93bed78"
      }
    },
    {
      "fullUrl": "urn:uuid:7e081ec9-af06-a434-a0ca-f823aff8bae4",
      "resource": {
        "resourceType": "Observation",
        "id": "7e081ec9-af06-a434-a0ca-f823aff8bae4",
        "meta": {
          "profile": [
            "http://hl7.org/fhir/us/core/StructureDefinition/us-core-observationresults"
          ],
          "source": [
            "ecr"
          ]
        },
        "identifier": [
          {
            "system": "urn:oid:2.16.840.1.113883",
            "value": "https://fhir-ehr.cerner.com/r4/da0b5d99-573c-4f5e-aaf6-8d39fa93d033/Observation/M-19269505774/_history/1"
          }
        ],
        "category": [
          {
            "coding": [
              {
                "system": "http://terminology.hl7.org/CodeSystem/observation-category",
                "code": "laboratory"
              }
            ]
          }
        ],
        "status": "final",
        "code": {
          "coding": [
            {
              "code": "786-4",
              "system": "http://loinc.org"
            }
          ]
        },
        "effectiveDateTime": "2022-04-13T09:46:00Z",
        "valueQuantity": {
          "value": 30.4,
          "unit": "gm/dL"
        },
        "interpretation": [
          {
            "coding": [
              {
                "code": "L",
                "display": "Low",
                "system": "http://terminology.hl7.org/CodeSystem/v3-ObservationInterpretation"
              }
            ]
          }
        ],
        "subject": {
          "reference": "Patient/e962c108-813b-41c5-9f7e-985de7265dcb"
        }
      },
      "request": {
        "method": "PUT",
        "url": "Observation/7e081ec9-af06-a434-a0ca-f823aff8bae4"
      }
    },
    {
      "fullUrl": "urn:uuid:e1e10f30-0020-02b1-c8ca-9474fb6b2b06",
      "resource": {
        "resourceType": "DiagnosticReport",
        "id": "e1e10f30-0020-02b1-c8ca-9474fb6b2b06",
        "identifier": [
          {
            "system": "urn:ietf:rfc:3986",
            "value": "urn:uuid:892b5d40-9778-4f04-ab9a-44aac4236976"
          }
        ],
        "status": "final",
        "code": {
          "coding": [
            {
              "code": "785-6",
              "system": "http://loinc.org"
            }
          ]
        },
        "subject": {
          "reference": "Patient/e962c108-813b-41c5-9f7e-985de7265dcb"
        },
        "result": [
          {
            "reference": "Observation/4fe4411e-4b85-1cf4-b1b2-5f53555963ed"
          }
        ],
        "meta": {
          "source": [
            "ecr"
          ]
        }
      },
      "request": {
        "method": "PUT",
        "url": "DiagnosticReport/e1e10f30-0020-02b1-c8ca-9474fb6b2b06"
      }
    },
    {
      "fullUrl": "urn:uuid:4fe4411e-4b85-1cf4-b1b2-5f53555963ed",
      "resource": {
        "resourceType": "Observation",
        "id": "4fe4411e-4b85-1cf4-b1b2-5f53555963ed",
        "meta": {
          "profile": [
            "http://hl7.org/fhir/us/core/StructureDefinition/us-core-observationresults"
          ],
          "source": [
            "ecr"
          ]
        },
        "identifier": [
          {
            "system": "urn:oid:2.16.840.1.113883",
            "value": "https://fhir-ehr.cerner.com/r4/da0b5d99-573c-4f5e-aaf6-8d39fa93d033/Observation/M-19269505772/_history/1"
          }
        ],
        "category": [
          {
            "coding": [
              {
                "system": "http://terminology.hl7.org/CodeSystem/observation-category",
                "code": "laboratory"
              }
            ]
          }
        ],
        "status": "final",
        "code": {
          "coding": [
            {
              "code": "785-6",
              "system": "http://loinc.org"
            }
          ]
        },
        "effectiveDateTime": "2022-04-13T09:46:00Z",
        "valueQuantity": {
          "value": 22.0,
          "unit": "pg"
        },
        "interpretation": [
          {
            "coding": [
              {
                "code": "L",
                "display": "Low",
                "system": "http://terminology.hl7.org/CodeSystem/v3-ObservationInterpretation"
              }
            ]
          }
        ],
        "subject": {
          "reference": "Patient/e962c108-813b-41c5-9f7e-985de7265dcb"
        }
      },
      "request": {
        "method": "PUT",
        "url": "Observation/4fe4411e-4b85-1cf4-b1b2-5f53555963ed"
      }
    },
    {
      "fullUrl": "urn:uuid:15b20571-db2a-65df-ac22-bb98502fb28d",
      "resource": {
        "resourceType": "DiagnosticReport",
        "id": "15b20571-db2a-65df-ac22-bb98502fb28d",
        "identifier": [
          {
            "system": "urn:ietf:rfc:3986",
            "value": "urn:uuid:0fd23b8d-99a1-4540-b96a-132a5187f038"
          }
        ],
        "status": "final",
        "code": {
          "coding": [
            {
              "code": "718-7",
              "system": "http://loinc.org"
            }
          ]
        },
        "subject": {
          "reference": "Patient/e962c108-813b-41c5-9f7e-985de7265dcb"
        },
        "result": [
          {
            "reference": "Observation/858a2450-e45d-5df7-afb5-ac38115a7487"
          }
        ],
        "meta": {
          "source": [
            "ecr"
          ]
        }
      },
      "request": {
        "method": "PUT",
        "url": "DiagnosticReport/15b20571-db2a-65df-ac22-bb98502fb28d"
      }
    },
    {
      "fullUrl": "urn:uuid:858a2450-e45d-5df7-afb5-ac38115a7487",
      "resource": {
        "resourceType": "Observation",
        "id": "858a2450-e45d-5df7-afb5-ac38115a7487",
        "meta": {
          "profile": [
            "http://hl7.org/fhir/us/core/StructureDefinition/us-core-observationresults"
          ],
          "source": [
            "ecr"
          ]
        },
        "identifier": [
          {
            "system": "urn:oid:2.16.840.1.113883",
            "value": "https://fhir-ehr.cerner.com/r4/da0b5d99-573c-4f5e-aaf6-8d39fa93d033/Observation/M-19269505766/_history/1"
          }
        ],
        "category": [
          {
            "coding": [
              {
                "system": "http://terminology.hl7.org/CodeSystem/observation-category",
                "code": "laboratory"
              }
            ]
          }
        ],
        "status": "final",
        "code": {
          "coding": [
            {
              "code": "718-7",
              "system": "http://loinc.org"
            }
          ]
        },
        "effectiveDateTime": "2022-04-13T09:46:00Z",
        "valueQuantity": {
          "value": 11.9,
          "unit": "gm/dL"
        },
        "interpretation": [
          {
            "coding": [
              {
                "code": "L",
                "display": "Low",
                "system": "http://terminology.hl7.org/CodeSystem/v3-ObservationInterpretation"
              }
            ]
          }
        ],
        "subject": {
          "reference": "Patient/e962c108-813b-41c5-9f7e-985de7265dcb"
        }
      },
      "request": {
        "method": "PUT",
        "url": "Observation/858a2450-e45d-5df7-afb5-ac38115a7487"
      }
    },
    {
      "fullUrl": "urn:uuid:0214dd79-e9c9-d1e8-251e-fb9ec6987d7a",
      "resource": {
        "resourceType": "DiagnosticReport",
        "id": "0214dd79-e9c9-d1e8-251e-fb9ec6987d7a",
        "identifier": [
          {
            "system": "urn:ietf:rfc:3986",
            "value": "urn:uuid:79b13d2c-67fc-4c1f-a4d8-c4fc34cf74f8"
          }
        ],
        "status": "final",
        "code": {
          "coding": [
            {
              "code": "4544-3",
              "system": "http://loinc.org"
            }
          ]
        },
        "subject": {
          "reference": "Patient/e962c108-813b-41c5-9f7e-985de7265dcb"
        },
        "result": [
          {
            "reference": "Observation/3b80b0f0-da03-a615-f69c-57b4591b96ea"
          }
        ],
        "meta": {
          "source": [
            "ecr"
          ]
        }
      },
      "request": {
        "method": "PUT",
        "url": "DiagnosticReport/0214dd79-e9c9-d1e8-251e-fb9ec6987d7a"
      }
    },
    {
      "fullUrl": "urn:uuid:3b80b0f0-da03-a615-f69c-57b4591b96ea",
      "resource": {
        "resourceType": "Observation",
        "id": "3b80b0f0-da03-a615-f69c-57b4591b96ea",
        "meta": {
          "profile": [
            "http://hl7.org/fhir/us/core/StructureDefinition/us-core-observationresults"
          ],
          "source": [
            "ecr"
          ]
        },
        "identifier": [
          {
            "system": "urn:oid:2.16.840.1.113883",
            "value": "https://fhir-ehr.cerner.com/r4/da0b5d99-573c-4f5e-aaf6-8d39fa93d033/Observation/M-19269505768/_history/1"
          }
        ],
        "category": [
          {
            "coding": [
              {
                "system": "http://terminology.hl7.org/CodeSystem/observation-category",
                "code": "laboratory"
              }
            ]
          }
        ],
        "status": "final",
        "code": {
          "coding": [
            {
              "code": "4544-3",
              "system": "http://loinc.org"
            }
          ]
        },
        "effectiveDateTime": "2022-04-13T09:46:00Z",
        "valueQuantity": {
          "value": 39.1,
          "unit": "%"
        },
        "interpretation": [
          {
            "coding": [
              {
                "code": "N",
                "display": "Normal",
                "system": "http://terminology.hl7.org/CodeSystem/v3-ObservationInterpretation"
              }
            ]
          }
        ],
        "subject": {
          "reference": "Patient/e962c108-813b-41c5-9f7e-985de7265dcb"
        }
      },
      "request": {
        "method": "PUT",
        "url": "Observation/3b80b0f0-da03-a615-f69c-57b4591b96ea"
      }
    },
    {
      "fullUrl": "urn:uuid:7f9240ea-7bec-0355-ff5b-0eafe0437628",
      "resource": {
        "resourceType": "DiagnosticReport",
        "id": "7f9240ea-7bec-0355-ff5b-0eafe0437628",
        "identifier": [
          {
            "system": "urn:ietf:rfc:3986",
            "value": "urn:uuid:975dc103-6f64-4b2a-a82d-06373c3d903c"
          }
        ],
        "status": "final",
        "code": {
          "coding": [
            {
              "code": "2345-7",
              "system": "http://loinc.org"
            }
          ]
        },
        "subject": {
          "reference": "Patient/e962c108-813b-41c5-9f7e-985de7265dcb"
        },
        "result": [
          {
            "reference": "Observation/dd63811b-60e3-605b-95b1-79b1305bd70e"
          }
        ],
        "meta": {
          "source": [
            "ecr"
          ]
        }
      },
      "request": {
        "method": "PUT",
        "url": "DiagnosticReport/7f9240ea-7bec-0355-ff5b-0eafe0437628"
      }
    },
    {
      "fullUrl": "urn:uuid:dd63811b-60e3-605b-95b1-79b1305bd70e",
      "resource": {
        "resourceType": "Observation",
        "id": "dd63811b-60e3-605b-95b1-79b1305bd70e",
        "meta": {
          "profile": [
            "http://hl7.org/fhir/us/core/StructureDefinition/us-core-observationresults"
          ],
          "source": [
            "ecr"
          ]
        },
        "identifier": [
          {
            "system": "urn:oid:2.16.840.1.113883",
            "value": "https://fhir-ehr.cerner.com/r4/da0b5d99-573c-4f5e-aaf6-8d39fa93d033/Observation/M-19269550277/_history/1"
          }
        ],
        "category": [
          {
            "coding": [
              {
                "system": "http://terminology.hl7.org/CodeSystem/observation-category",
                "code": "laboratory"
              }
            ]
          }
        ],
        "status": "final",
        "code": {
          "coding": [
            {
              "code": "2345-7",
              "system": "http://loinc.org"
            }
          ]
        },
        "effectiveDateTime": "2022-04-13T09:46:00Z",
        "valueQuantity": {
          "value": 95,
          "unit": "mg/dL"
        },
        "interpretation": [
          {
            "coding": [
              {
                "code": "N",
                "display": "Normal",
                "system": "http://terminology.hl7.org/CodeSystem/v3-ObservationInterpretation"
              }
            ]
          }
        ],
        "subject": {
          "reference": "Patient/e962c108-813b-41c5-9f7e-985de7265dcb"
        }
      },
      "request": {
        "method": "PUT",
        "url": "Observation/dd63811b-60e3-605b-95b1-79b1305bd70e"
      }
    },
    {
      "fullUrl": "urn:uuid:21894105-c3fb-d470-8f9b-757e0687bb9d",
      "resource": {
        "resourceType": "DiagnosticReport",
        "id": "21894105-c3fb-d470-8f9b-757e0687bb9d",
        "identifier": [
          {
            "system": "urn:ietf:rfc:3986",
            "value": "urn:uuid:c6518d7a-ca3f-4913-a5cd-ced62fe531be"
          }
        ],
        "status": "final",
        "code": {
          "coding": [
            {
              "code": "2028-9",
              "system": "http://loinc.org"
            }
          ]
        },
        "subject": {
          "reference": "Patient/e962c108-813b-41c5-9f7e-985de7265dcb"
        },
        "result": [
          {
            "reference": "Observation/7a4e1aac-b8b1-2179-a80c-e8c40934fff2"
          }
        ],
        "meta": {
          "source": [
            "ecr"
          ]
        }
      },
      "request": {
        "method": "PUT",
        "url": "DiagnosticReport/21894105-c3fb-d470-8f9b-757e0687bb9d"
      }
    },
    {
      "fullUrl": "urn:uuid:7a4e1aac-b8b1-2179-a80c-e8c40934fff2",
      "resource": {
        "resourceType": "Observation",
        "id": "7a4e1aac-b8b1-2179-a80c-e8c40934fff2",
        "meta": {
          "profile": [
            "http://hl7.org/fhir/us/core/StructureDefinition/us-core-observationresults"
          ],
          "source": [
            "ecr"
          ]
        },
        "identifier": [
          {
            "system": "urn:oid:2.16.840.1.113883",
            "value": "https://fhir-ehr.cerner.com/r4/da0b5d99-573c-4f5e-aaf6-8d39fa93d033/Observation/M-19269550267/_history/1"
          }
        ],
        "category": [
          {
            "coding": [
              {
                "system": "http://terminology.hl7.org/CodeSystem/observation-category",
                "code": "laboratory"
              }
            ]
          }
        ],
        "status": "final",
        "code": {
          "coding": [
            {
              "code": "2028-9",
              "system": "http://loinc.org"
            }
          ]
        },
        "effectiveDateTime": "2022-04-13T09:46:00Z",
        "valueQuantity": {
          "value": 29,
          "unit": "mmol/L"
        },
        "interpretation": [
          {
            "coding": [
              {
                "code": "N",
                "display": "Normal",
                "system": "http://terminology.hl7.org/CodeSystem/v3-ObservationInterpretation"
              }
            ]
          }
        ],
        "subject": {
          "reference": "Patient/e962c108-813b-41c5-9f7e-985de7265dcb"
        }
      },
      "request": {
        "method": "PUT",
        "url": "Observation/7a4e1aac-b8b1-2179-a80c-e8c40934fff2"
      }
    },
    {
      "fullUrl": "urn:uuid:429ba4dc-fc80-52b5-fd7c-bafc97deb406",
      "resource": {
        "resourceType": "DiagnosticReport",
        "id": "429ba4dc-fc80-52b5-fd7c-bafc97deb406",
        "identifier": [
          {
            "system": "urn:ietf:rfc:3986",
            "value": "urn:uuid:703407cf-5a41-4c2c-8e32-f5bde1909c07"
          }
        ],
        "status": "final",
        "code": {
          "coding": [
            {
              "code": "1975-2",
              "system": "http://loinc.org"
            }
          ]
        },
        "subject": {
          "reference": "Patient/e962c108-813b-41c5-9f7e-985de7265dcb"
        },
        "result": [
          {
            "reference": "Observation/e86f39d7-4e90-9fca-677f-db58aeeca42e"
          }
        ],
        "meta": {
          "source": [
            "ecr"
          ]
        }
      },
      "request": {
        "method": "PUT",
        "url": "DiagnosticReport/429ba4dc-fc80-52b5-fd7c-bafc97deb406"
      }
    },
    {
      "fullUrl": "urn:uuid:e86f39d7-4e90-9fca-677f-db58aeeca42e",
      "resource": {
        "resourceType": "Observation",
        "id": "e86f39d7-4e90-9fca-677f-db58aeeca42e",
        "meta": {
          "profile": [
            "http://hl7.org/fhir/us/core/StructureDefinition/us-core-observationresults"
          ],
          "source": [
            "ecr"
          ]
        },
        "identifier": [
          {
            "system": "urn:oid:2.16.840.1.113883",
            "value": "https://fhir-ehr.cerner.com/r4/da0b5d99-573c-4f5e-aaf6-8d39fa93d033/Observation/M-19269550291/_history/1"
          }
        ],
        "category": [
          {
            "coding": [
              {
                "system": "http://terminology.hl7.org/CodeSystem/observation-category",
                "code": "laboratory"
              }
            ]
          }
        ],
        "status": "final",
        "code": {
          "coding": [
            {
              "code": "1975-2",
              "system": "http://loinc.org"
            }
          ]
        },
        "effectiveDateTime": "2022-04-13T09:46:00Z",
        "valueQuantity": {
          "value": 0.2,
          "unit": "mg/dL"
        },
        "interpretation": [
          {
            "coding": [
              {
                "code": "N",
                "display": "Normal",
                "system": "http://terminology.hl7.org/CodeSystem/v3-ObservationInterpretation"
              }
            ]
          }
        ],
        "subject": {
          "reference": "Patient/e962c108-813b-41c5-9f7e-985de7265dcb"
        }
      },
      "request": {
        "method": "PUT",
        "url": "Observation/e86f39d7-4e90-9fca-677f-db58aeeca42e"
      }
    },
    {
      "fullUrl": "urn:uuid:211ae7b3-a41d-7376-d429-6869523c0e49",
      "resource": {
        "resourceType": "DiagnosticReport",
        "id": "211ae7b3-a41d-7376-d429-6869523c0e49",
        "identifier": [
          {
            "system": "urn:ietf:rfc:3986",
            "value": "urn:uuid:51b41f7e-563e-4dc9-ae28-98786b410bf6"
          }
        ],
        "status": "final",
        "code": {
          "coding": [
            {
              "code": "1920-8",
              "system": "http://loinc.org"
            }
          ]
        },
        "subject": {
          "reference": "Patient/e962c108-813b-41c5-9f7e-985de7265dcb"
        },
        "result": [
          {
            "reference": "Observation/539d5565-69b3-91fd-0744-f4e3c054e510"
          }
        ],
        "meta": {
          "source": [
            "ecr"
          ]
        }
      },
      "request": {
        "method": "PUT",
        "url": "DiagnosticReport/211ae7b3-a41d-7376-d429-6869523c0e49"
      }
    },
    {
      "fullUrl": "urn:uuid:539d5565-69b3-91fd-0744-f4e3c054e510",
      "resource": {
        "resourceType": "Observation",
        "id": "539d5565-69b3-91fd-0744-f4e3c054e510",
        "meta": {
          "profile": [
            "http://hl7.org/fhir/us/core/StructureDefinition/us-core-observationresults"
          ],
          "source": [
            "ecr"
          ]
        },
        "identifier": [
          {
            "system": "urn:oid:2.16.840.1.113883",
            "value": "https://fhir-ehr.cerner.com/r4/da0b5d99-573c-4f5e-aaf6-8d39fa93d033/Observation/M-19269550285/_history/1"
          }
        ],
        "category": [
          {
            "coding": [
              {
                "system": "http://terminology.hl7.org/CodeSystem/observation-category",
                "code": "laboratory"
              }
            ]
          }
        ],
        "status": "final",
        "code": {
          "coding": [
            {
              "code": "1920-8",
              "system": "http://loinc.org"
            }
          ]
        },
        "effectiveDateTime": "2022-04-13T09:46:00Z",
        "valueQuantity": {
          "value": 20,
          "unit": "units/L"
        },
        "interpretation": [
          {
            "coding": [
              {
                "code": "N",
                "display": "Normal",
                "system": "http://terminology.hl7.org/CodeSystem/v3-ObservationInterpretation"
              }
            ]
          }
        ],
        "subject": {
          "reference": "Patient/e962c108-813b-41c5-9f7e-985de7265dcb"
        }
      },
      "request": {
        "method": "PUT",
        "url": "Observation/539d5565-69b3-91fd-0744-f4e3c054e510"
      }
    },
    {
      "fullUrl": "urn:uuid:2ed9ee21-1c4f-01dd-b44a-7be8c2dd470e",
      "resource": {
        "resourceType": "DiagnosticReport",
        "id": "2ed9ee21-1c4f-01dd-b44a-7be8c2dd470e",
        "identifier": [
          {
            "system": "urn:ietf:rfc:3986",
            "value": "urn:uuid:0b0fff8c-74ce-482d-b184-373979e53baa"
          }
        ],
        "status": "final",
        "code": {
          "coding": [
            {
              "code": "1742-6",
              "system": "http://loinc.org"
            }
          ]
        },
        "subject": {
          "reference": "Patient/e962c108-813b-41c5-9f7e-985de7265dcb"
        },
        "result": [
          {
            "reference": "Observation/4605c412-3f46-1c67-e8d8-267f8974d192"
          }
        ],
        "meta": {
          "source": [
            "ecr"
          ]
        }
      },
      "request": {
        "method": "PUT",
        "url": "DiagnosticReport/2ed9ee21-1c4f-01dd-b44a-7be8c2dd470e"
      }
    },
    {
      "fullUrl": "urn:uuid:4605c412-3f46-1c67-e8d8-267f8974d192",
      "resource": {
        "resourceType": "Observation",
        "id": "4605c412-3f46-1c67-e8d8-267f8974d192",
        "meta": {
          "profile": [
            "http://hl7.org/fhir/us/core/StructureDefinition/us-core-observationresults"
          ],
          "source": [
            "ecr"
          ]
        },
        "identifier": [
          {
            "system": "urn:oid:2.16.840.1.113883",
            "value": "https://fhir-ehr.cerner.com/r4/da0b5d99-573c-4f5e-aaf6-8d39fa93d033/Observation/M-19269550283/_history/1"
          }
        ],
        "category": [
          {
            "coding": [
              {
                "system": "http://terminology.hl7.org/CodeSystem/observation-category",
                "code": "laboratory"
              }
            ]
          }
        ],
        "status": "final",
        "code": {
          "coding": [
            {
              "code": "1742-6",
              "system": "http://loinc.org"
            }
          ]
        },
        "effectiveDateTime": "2022-04-13T09:46:00Z",
        "valueQuantity": {
          "value": 26,
          "unit": "units/L"
        },
        "interpretation": [
          {
            "coding": [
              {
                "code": "N",
                "display": "Normal",
                "system": "http://terminology.hl7.org/CodeSystem/v3-ObservationInterpretation"
              }
            ]
          }
        ],
        "subject": {
          "reference": "Patient/e962c108-813b-41c5-9f7e-985de7265dcb"
        }
      },
      "request": {
        "method": "PUT",
        "url": "Observation/4605c412-3f46-1c67-e8d8-267f8974d192"
      }
    },
    {
      "fullUrl": "urn:uuid:c698c2e0-a103-ca69-e4e1-db9aff30f549",
      "resource": {
        "resourceType": "DiagnosticReport",
        "id": "c698c2e0-a103-ca69-e4e1-db9aff30f549",
        "identifier": [
          {
            "system": "urn:ietf:rfc:3986",
            "value": "urn:uuid:c54237aa-90ee-4bf9-8792-502fd8e27866"
          }
        ],
        "status": "final",
        "code": {
          "coding": [
            {
              "code": "6768-6",
              "system": "http://loinc.org"
            }
          ]
        },
        "subject": {
          "reference": "Patient/e962c108-813b-41c5-9f7e-985de7265dcb"
        },
        "result": [
          {
            "reference": "Observation/ccb14b90-044c-fc57-6fc7-7cee67f06222"
          }
        ],
        "meta": {
          "source": [
            "ecr"
          ]
        }
      },
      "request": {
        "method": "PUT",
        "url": "DiagnosticReport/c698c2e0-a103-ca69-e4e1-db9aff30f549"
      }
    },
    {
      "fullUrl": "urn:uuid:ccb14b90-044c-fc57-6fc7-7cee67f06222",
      "resource": {
        "resourceType": "Observation",
        "id": "ccb14b90-044c-fc57-6fc7-7cee67f06222",
        "meta": {
          "profile": [
            "http://hl7.org/fhir/us/core/StructureDefinition/us-core-observationresults"
          ],
          "source": [
            "ecr"
          ]
        },
        "identifier": [
          {
            "system": "urn:oid:2.16.840.1.113883",
            "value": "https://fhir-ehr.cerner.com/r4/da0b5d99-573c-4f5e-aaf6-8d39fa93d033/Observation/M-19269550289/_history/1"
          }
        ],
        "category": [
          {
            "coding": [
              {
                "system": "http://terminology.hl7.org/CodeSystem/observation-category",
                "code": "laboratory"
              }
            ]
          }
        ],
        "status": "final",
        "code": {
          "coding": [
            {
              "code": "6768-6",
              "system": "http://loinc.org"
            }
          ]
        },
        "effectiveDateTime": "2022-04-13T09:46:00Z",
        "valueQuantity": {
          "value": 74,
          "unit": "units/L"
        },
        "interpretation": [
          {
            "coding": [
              {
                "code": "N",
                "display": "Normal",
                "system": "http://terminology.hl7.org/CodeSystem/v3-ObservationInterpretation"
              }
            ]
          }
        ],
        "subject": {
          "reference": "Patient/e962c108-813b-41c5-9f7e-985de7265dcb"
        }
      },
      "request": {
        "method": "PUT",
        "url": "Observation/ccb14b90-044c-fc57-6fc7-7cee67f06222"
      }
    },
    {
      "fullUrl": "urn:uuid:6ba67996-5704-4e24-c55e-c9d02f93ff76",
      "resource": {
        "resourceType": "DiagnosticReport",
        "id": "6ba67996-5704-4e24-c55e-c9d02f93ff76",
        "identifier": [
          {
            "system": "urn:ietf:rfc:3986",
            "value": "urn:uuid:13b26059-482c-42bb-b5be-091a78788c44"
          }
        ],
        "status": "final",
        "code": {
          "coding": [
            {
              "code": "18309-5",
              "system": "http://loinc.org"
            }
          ]
        },
        "subject": {
          "reference": "Patient/e962c108-813b-41c5-9f7e-985de7265dcb"
        },
        "result": [
          {
            "reference": "Observation/15b3d8a9-8ae7-0ab9-7ffe-57dff7a9cffd"
          }
        ],
        "meta": {
          "source": [
            "ecr"
          ]
        }
      },
      "request": {
        "method": "PUT",
        "url": "DiagnosticReport/6ba67996-5704-4e24-c55e-c9d02f93ff76"
      }
    },
    {
      "fullUrl": "urn:uuid:15b3d8a9-8ae7-0ab9-7ffe-57dff7a9cffd",
      "resource": {
        "resourceType": "Observation",
        "id": "15b3d8a9-8ae7-0ab9-7ffe-57dff7a9cffd",
        "meta": {
          "profile": [
            "http://hl7.org/fhir/us/core/StructureDefinition/us-core-observationresults"
          ],
          "source": [
            "ecr"
          ]
        },
        "identifier": [
          {
            "system": "urn:oid:2.16.840.1.113883",
            "value": "https://fhir-ehr.cerner.com/r4/da0b5d99-573c-4f5e-aaf6-8d39fa93d033/Observation/M-19269505786/_history/1"
          }
        ],
        "category": [
          {
            "coding": [
              {
                "system": "http://terminology.hl7.org/CodeSystem/observation-category",
                "code": "laboratory"
              }
            ]
          }
        ],
        "status": "final",
        "code": {
          "coding": [
            {
              "code": "18309-5",
              "system": "http://loinc.org"
            }
          ]
        },
        "effectiveDateTime": "2022-04-13T09:46:00Z",
        "valueQuantity": {
          "value": 0.1,
          "unit": "/100 WBC"
        },
        "interpretation": [
          {
            "coding": [
              {
                "code": "N",
                "display": "Normal",
                "system": "http://terminology.hl7.org/CodeSystem/v3-ObservationInterpretation"
              }
            ]
          }
        ],
        "subject": {
          "reference": "Patient/e962c108-813b-41c5-9f7e-985de7265dcb"
        }
      },
      "request": {
        "method": "PUT",
        "url": "Observation/15b3d8a9-8ae7-0ab9-7ffe-57dff7a9cffd"
      }
    },
    {
      "fullUrl": "urn:uuid:08494c5c-17b2-7524-2d93-c98eb9d2a0f4",
      "resource": {
        "resourceType": "DiagnosticReport",
        "id": "08494c5c-17b2-7524-2d93-c98eb9d2a0f4",
        "identifier": [
          {
            "system": "urn:ietf:rfc:3986",
            "value": "urn:uuid:fb2f2996-75ad-4969-a86c-fd656165b463"
          }
        ],
        "status": "final",
        "code": {
          "coding": [
            {
              "code": "3097-3",
              "system": "http://loinc.org"
            }
          ]
        },
        "subject": {
          "reference": "Patient/e962c108-813b-41c5-9f7e-985de7265dcb"
        },
        "result": [
          {
            "reference": "Observation/7d9bc710-a31d-4047-df2f-2cafd97cb02e"
          }
        ],
        "meta": {
          "source": [
            "ecr"
          ]
        }
      },
      "request": {
        "method": "PUT",
        "url": "DiagnosticReport/08494c5c-17b2-7524-2d93-c98eb9d2a0f4"
      }
    },
    {
      "fullUrl": "urn:uuid:7d9bc710-a31d-4047-df2f-2cafd97cb02e",
      "resource": {
        "resourceType": "Observation",
        "id": "7d9bc710-a31d-4047-df2f-2cafd97cb02e",
        "meta": {
          "profile": [
            "http://hl7.org/fhir/us/core/StructureDefinition/us-core-observationresults"
          ],
          "source": [
            "ecr"
          ]
        },
        "identifier": [
          {
            "system": "urn:oid:2.16.840.1.113883",
            "value": "https://fhir-ehr.cerner.com/r4/da0b5d99-573c-4f5e-aaf6-8d39fa93d033/Observation/M-19269550297/_history/1"
          }
        ],
        "category": [
          {
            "coding": [
              {
                "system": "http://terminology.hl7.org/CodeSystem/observation-category",
                "code": "laboratory"
              }
            ]
          }
        ],
        "status": "final",
        "code": {
          "coding": [
            {
              "code": "3097-3",
              "system": "http://loinc.org"
            }
          ]
        },
        "effectiveDateTime": "2022-04-13T09:46:00Z",
        "valueQuantity": {
          "value": 23,
          "unit": "null"
        },
        "interpretation": [
          {
            "coding": [
              {
                "code": "H",
                "display": "High",
                "system": "http://terminology.hl7.org/CodeSystem/v3-ObservationInterpretation"
              }
            ]
          }
        ],
        "subject": {
          "reference": "Patient/e962c108-813b-41c5-9f7e-985de7265dcb"
        }
      },
      "request": {
        "method": "PUT",
        "url": "Observation/7d9bc710-a31d-4047-df2f-2cafd97cb02e"
      }
    },
    {
      "fullUrl": "urn:uuid:bd57105a-8027-25b2-2702-d2c0d0974abd",
      "resource": {
        "resourceType": "DiagnosticReport",
        "id": "bd57105a-8027-25b2-2702-d2c0d0974abd",
        "identifier": [
          {
            "system": "urn:ietf:rfc:3986",
            "value": "urn:uuid:effa5c21-d5f4-4d68-8da2-c4b8653bd13d"
          }
        ],
        "status": "final",
        "code": {
          "coding": [
            {
              "code": "6301-6",
              "system": "http://loinc.org"
            }
          ]
        },
        "subject": {
          "reference": "Patient/e962c108-813b-41c5-9f7e-985de7265dcb"
        },
        "result": [
          {
            "reference": "Observation/aa0825c8-2cd8-f610-178b-16de6aafe423"
          }
        ],
        "meta": {
          "source": [
            "ecr"
          ]
        }
      },
      "request": {
        "method": "PUT",
        "url": "DiagnosticReport/bd57105a-8027-25b2-2702-d2c0d0974abd"
      }
    },
    {
      "fullUrl": "urn:uuid:aa0825c8-2cd8-f610-178b-16de6aafe423",
      "resource": {
        "resourceType": "Observation",
        "id": "aa0825c8-2cd8-f610-178b-16de6aafe423",
        "meta": {
          "profile": [
            "http://hl7.org/fhir/us/core/StructureDefinition/us-core-observationresults"
          ],
          "source": [
            "ecr"
          ]
        },
        "identifier": [
          {
            "system": "urn:oid:2.16.840.1.113883",
            "value": "https://fhir-ehr.cerner.com/r4/da0b5d99-573c-4f5e-aaf6-8d39fa93d033/Observation/M-19269623611/_history/1"
          }
        ],
        "category": [
          {
            "coding": [
              {
                "system": "http://terminology.hl7.org/CodeSystem/observation-category",
                "code": "laboratory"
              }
            ]
          }
        ],
        "status": "final",
        "code": {
          "coding": [
            {
              "code": "6301-6",
              "system": "http://loinc.org"
            }
          ]
        },
        "effectiveDateTime": "2022-04-13T09:46:00Z",
        "valueQuantity": {
          "value": 1.0,
          "unit": "null"
        },
        "interpretation": [
          {
            "coding": [
              {
                "code": "N",
                "display": "Normal",
                "system": "http://terminology.hl7.org/CodeSystem/v3-ObservationInterpretation"
              }
            ]
          }
        ],
        "subject": {
          "reference": "Patient/e962c108-813b-41c5-9f7e-985de7265dcb"
        }
      },
      "request": {
        "method": "PUT",
        "url": "Observation/aa0825c8-2cd8-f610-178b-16de6aafe423"
      }
    },
    {
      "fullUrl": "urn:uuid:3cb63d64-4fc1-4acb-f7e4-5eb109c93eaf",
      "resource": {
        "resourceType": "DiagnosticReport",
        "id": "3cb63d64-4fc1-4acb-f7e4-5eb109c93eaf",
        "identifier": [
          {
            "system": "urn:ietf:rfc:3986",
            "value": "urn:uuid:d9735ef4-31b1-4d94-b312-d02aba55c58f"
          }
        ],
        "status": "final",
        "code": {
          "coding": [
            {
              "code": "1863-0",
              "system": "http://loinc.org"
            }
          ]
        },
        "subject": {
          "reference": "Patient/e962c108-813b-41c5-9f7e-985de7265dcb"
        },
        "result": [
          {
            "reference": "Observation/e97c82cc-56f0-2980-85b1-e983dac30917"
          }
        ],
        "meta": {
          "source": [
            "ecr"
          ]
        }
      },
      "request": {
        "method": "PUT",
        "url": "DiagnosticReport/3cb63d64-4fc1-4acb-f7e4-5eb109c93eaf"
      }
    },
    {
      "fullUrl": "urn:uuid:e97c82cc-56f0-2980-85b1-e983dac30917",
      "resource": {
        "resourceType": "Observation",
        "id": "e97c82cc-56f0-2980-85b1-e983dac30917",
        "meta": {
          "profile": [
            "http://hl7.org/fhir/us/core/StructureDefinition/us-core-observationresults"
          ],
          "source": [
            "ecr"
          ]
        },
        "identifier": [
          {
            "system": "urn:oid:2.16.840.1.113883",
            "value": "https://fhir-ehr.cerner.com/r4/da0b5d99-573c-4f5e-aaf6-8d39fa93d033/Observation/M-19269550293/_history/1"
          }
        ],
        "category": [
          {
            "coding": [
              {
                "system": "http://terminology.hl7.org/CodeSystem/observation-category",
                "code": "laboratory"
              }
            ]
          }
        ],
        "status": "final",
        "code": {
          "coding": [
            {
              "code": "1863-0",
              "system": "http://loinc.org"
            }
          ]
        },
        "effectiveDateTime": "2022-04-13T09:46:00Z",
        "valueQuantity": {
          "value": 3,
          "unit": "mmol/L"
        },
        "interpretation": [
          {
            "coding": [
              {
                "code": "L",
                "display": "Low",
                "system": "http://terminology.hl7.org/CodeSystem/v3-ObservationInterpretation"
              }
            ]
          }
        ],
        "subject": {
          "reference": "Patient/e962c108-813b-41c5-9f7e-985de7265dcb"
        }
      },
      "request": {
        "method": "PUT",
        "url": "Observation/e97c82cc-56f0-2980-85b1-e983dac30917"
      }
    },
    {
      "fullUrl": "urn:uuid:f2ccc216-7c90-aec8-c3d8-8ca224c68e04",
      "resource": {
        "resourceType": "DiagnosticReport",
        "id": "f2ccc216-7c90-aec8-c3d8-8ca224c68e04",
        "identifier": [
          {
            "system": "urn:ietf:rfc:3986",
            "value": "urn:uuid:f3313b6f-4d28-49a3-b260-e5724fa2e6ba"
          }
        ],
        "status": "final",
        "code": {
          "coding": [
            {
              "code": "2160-0",
              "system": "http://loinc.org"
            }
          ]
        },
        "subject": {
          "reference": "Patient/e962c108-813b-41c5-9f7e-985de7265dcb"
        },
        "result": [
          {
            "reference": "Observation/1c9600bc-b586-f001-25fc-13be72f7f296"
          }
        ],
        "meta": {
          "source": [
            "ecr"
          ]
        }
      },
      "request": {
        "method": "PUT",
        "url": "DiagnosticReport/f2ccc216-7c90-aec8-c3d8-8ca224c68e04"
      }
    },
    {
      "fullUrl": "urn:uuid:1c9600bc-b586-f001-25fc-13be72f7f296",
      "resource": {
        "resourceType": "Observation",
        "id": "1c9600bc-b586-f001-25fc-13be72f7f296",
        "meta": {
          "profile": [
            "http://hl7.org/fhir/us/core/StructureDefinition/us-core-observationresults"
          ],
          "source": [
            "ecr"
          ]
        },
        "identifier": [
          {
            "system": "urn:oid:2.16.840.1.113883",
            "value": "https://fhir-ehr.cerner.com/r4/da0b5d99-573c-4f5e-aaf6-8d39fa93d033/Observation/M-19269550273/_history/1"
          }
        ],
        "category": [
          {
            "coding": [
              {
                "system": "http://terminology.hl7.org/CodeSystem/observation-category",
                "code": "laboratory"
              }
            ]
          }
        ],
        "status": "final",
        "code": {
          "coding": [
            {
              "code": "2160-0",
              "system": "http://loinc.org"
            }
          ]
        },
        "effectiveDateTime": "2022-04-13T09:46:00Z",
        "valueQuantity": {
          "value": 1.01,
          "unit": "mg/dL"
        },
        "interpretation": [
          {
            "coding": [
              {
                "code": "N",
                "display": "Normal",
                "system": "http://terminology.hl7.org/CodeSystem/v3-ObservationInterpretation"
              }
            ]
          }
        ],
        "subject": {
          "reference": "Patient/e962c108-813b-41c5-9f7e-985de7265dcb"
        }
      },
      "request": {
        "method": "PUT",
        "url": "Observation/1c9600bc-b586-f001-25fc-13be72f7f296"
      }
    },
    {
      "fullUrl": "urn:uuid:39fc6765-cae0-47b1-a804-7b1c6c7ebf10",
      "resource": {
        "resourceType": "Observation",
        "id": "39fc6765-cae0-47b1-a804-7b1c6c7ebf10",
        "meta": {
          "profile": [
            "http://hl7.org/fhir/us/ecr/StructureDefinition/us-ph-travel-history"
          ],
          "source": [
            "ecr"
          ]
        },
        "code": {
          "coding": [
            {
              "system": "http://snomed.info/sct",
              "code": "420008001",
              "display": "Travel"
            }
          ],
          "text": "Travel History"
        },
        "status": "final",
        "component": [
          {
            "code": {
              "coding": [
                {
                  "system": "http://terminology.hl7.org/CodeSystem/v3-ParticipationType",
                  "code": "LOC",
                  "display": "Location"
                }
              ]
            }
          }
        ],
        "effectiveDateTime": "2022-04-13T15:26:00Z"
      },
      "request": {
        "method": "PUT",
        "url": "Observation/39fc6765-cae0-47b1-a804-7b1c6c7ebf10"
      }
    },
    {
      "fullUrl": "urn:uuid:cab882e1-ae87-073d-b589-f5330181b738",
      "resource": {
        "resourceType": "Observation",
        "id": "cab882e1-ae87-073d-b589-f5330181b738",
        "meta": {
          "profile": [
            "http://hl7.org/fhir/us/ecr/StructureDefinition/us-ph-travel-history"
          ],
          "source": [
            "ecr"
          ]
        },
        "code": {
          "coding": [
            {
              "system": "http://snomed.info/sct",
              "code": "420008001",
              "display": "Travel"
            }
          ],
          "text": "Travel History"
        },
        "status": "final",
        "component": [
          {
            "code": {
              "coding": [
                {
                  "system": "http://terminology.hl7.org/CodeSystem/v3-ParticipationType",
                  "code": "LOC",
                  "display": "Location"
                }
              ]
            }
          }
        ],
        "effectiveDateTime": "2022-04-13T08:38:00Z"
      },
      "request": {
        "method": "PUT",
        "url": "Observation/cab882e1-ae87-073d-b589-f5330181b738"
      }
    },
    {
      "fullUrl": "urn:uuid:1258a4be-b52b-8064-23cb-54aff2543b55",
      "resource": {
        "resourceType": "Observation",
        "id": "1258a4be-b52b-8064-23cb-54aff2543b55",
        "meta": {
          "profile": [
            "http://hl7.org/fhir/us/ecr/StructureDefinition/us-ph-travel-history"
          ],
          "source": [
            "ecr"
          ]
        },
        "code": {
          "coding": [
            {
              "system": "http://snomed.info/sct",
              "code": "420008001",
              "display": "Travel"
            }
          ],
          "text": "Travel History"
        },
        "status": "final",
        "component": [
          {
            "code": {
              "coding": [
                {
                  "system": "http://terminology.hl7.org/CodeSystem/v3-ParticipationType",
                  "code": "LOC",
                  "display": "Location"
                }
              ]
            }
          }
        ],
        "effectiveDateTime": "2022-04-13T08:38:00Z"
      },
      "request": {
        "method": "PUT",
        "url": "Observation/1258a4be-b52b-8064-23cb-54aff2543b55"
      }
    },
    {
      "fullUrl": "urn:uuid:b13e6f13-9f5e-714e-f96f-b446cf5058bd",
      "resource": {
        "resourceType": "Observation",
        "id": "b13e6f13-9f5e-714e-f96f-b446cf5058bd",
        "meta": {
          "profile": [
            "http://hl7.org/fhir/us/ecr/StructureDefinition/us-ph-travel-history"
          ],
          "source": [
            "ecr"
          ]
        },
        "code": {
          "coding": [
            {
              "system": "http://snomed.info/sct",
              "code": "420008001",
              "display": "Travel"
            }
          ],
          "text": "Travel History"
        },
        "status": "final",
        "component": [
          {
            "code": {
              "coding": [
                {
                  "system": "http://terminology.hl7.org/CodeSystem/v3-ParticipationType",
                  "code": "LOC",
                  "display": "Location"
                }
              ]
            }
          }
        ],
        "effectiveDateTime": "2022-04-13T08:38:00Z"
      },
      "request": {
        "method": "PUT",
        "url": "Observation/b13e6f13-9f5e-714e-f96f-b446cf5058bd"
      }
    },
    {
      "fullUrl": "urn:uuid:930bcc29-63f3-183d-5bf3-411ee1901bf0",
      "resource": {
        "resourceType": "Observation",
        "id": "930bcc29-63f3-183d-5bf3-411ee1901bf0",
        "meta": {
          "profile": [
            "http://hl7.org/fhir/us/ecr/StructureDefinition/us-ph-travel-history"
          ],
          "source": [
            "ecr"
          ]
        },
        "code": {
          "coding": [
            {
              "system": "http://snomed.info/sct",
              "code": "420008001",
              "display": "Travel"
            }
          ],
          "text": "Travel History"
        },
        "status": "final",
        "component": [
          {
            "code": {
              "coding": [
                {
                  "system": "http://terminology.hl7.org/CodeSystem/v3-ParticipationType",
                  "code": "LOC",
                  "display": "Location"
                }
              ]
            }
          }
        ],
        "effectiveDateTime": "2022-04-13T08:38:00Z"
      },
      "request": {
        "method": "PUT",
        "url": "Observation/930bcc29-63f3-183d-5bf3-411ee1901bf0"
      }
    },
    {
      "fullUrl": "urn:uuid:49e16c19-d8f8-ca01-2066-ba0f92f28886",
      "resource": {
        "resourceType": "Observation",
        "id": "49e16c19-d8f8-ca01-2066-ba0f92f28886",
        "meta": {
          "profile": [
            "http://hl7.org/fhir/us/ecr/StructureDefinition/us-ph-travel-history"
          ],
          "source": [
            "ecr"
          ]
        },
        "code": {
          "coding": [
            {
              "system": "http://snomed.info/sct",
              "code": "420008001",
              "display": "Travel"
            }
          ],
          "text": "Travel History"
        },
        "status": "final",
        "component": [
          {
            "code": {
              "coding": [
                {
                  "system": "http://terminology.hl7.org/CodeSystem/v3-ParticipationType",
                  "code": "LOC",
                  "display": "Location"
                }
              ]
            }
          }
        ],
        "effectiveDateTime": "2022-04-13T08:38:00Z"
      },
      "request": {
        "method": "PUT",
        "url": "Observation/49e16c19-d8f8-ca01-2066-ba0f92f28886"
      }
    },
    {
      "fullUrl": "urn:uuid:ceba9aac-0792-15bf-7119-9c24f91e9cca",
      "resource": {
        "resourceType": "Observation",
        "id": "ceba9aac-0792-15bf-7119-9c24f91e9cca",
        "meta": {
          "profile": [
            "http://hl7.org/fhir/us/ecr/StructureDefinition/us-ph-travel-history"
          ],
          "source": [
            "ecr"
          ]
        },
        "code": {
          "coding": [
            {
              "system": "http://snomed.info/sct",
              "code": "420008001",
              "display": "Travel"
            }
          ],
          "text": "Travel History"
        },
        "status": "final",
        "component": [
          {
            "code": {
              "coding": [
                {
                  "system": "http://terminology.hl7.org/CodeSystem/v3-ParticipationType",
                  "code": "LOC",
                  "display": "Location"
                }
              ]
            }
          }
        ],
        "effectiveDateTime": "2022-04-13T08:38:00Z"
      },
      "request": {
        "method": "PUT",
        "url": "Observation/ceba9aac-0792-15bf-7119-9c24f91e9cca"
      }
    },
    {
      "fullUrl": "urn:uuid:6b250e41-9ec3-b90e-be74-38babc748acf",
      "resource": {
        "resourceType": "Observation",
        "id": "6b250e41-9ec3-b90e-be74-38babc748acf",
        "meta": {
          "profile": [
            "http://hl7.org/fhir/us/ecr/StructureDefinition/us-ph-travel-history"
          ],
          "source": [
            "ecr"
          ]
        },
        "code": {
          "coding": [
            {
              "system": "http://snomed.info/sct",
              "code": "420008001",
              "display": "Travel"
            }
          ],
          "text": "Travel History"
        },
        "status": "final",
        "component": [
          {
            "code": {
              "coding": [
                {
                  "system": "http://terminology.hl7.org/CodeSystem/v3-ParticipationType",
                  "code": "LOC",
                  "display": "Location"
                }
              ]
            }
          }
        ],
        "effectiveDateTime": "2022-04-13T08:38:00Z"
      },
      "request": {
        "method": "PUT",
        "url": "Observation/6b250e41-9ec3-b90e-be74-38babc748acf"
      }
    },
    {
      "fullUrl": "urn:uuid:4f434448-9204-4702-56c2-cad22e575809",
      "resource": {
        "resourceType": "Observation",
        "id": "4f434448-9204-4702-56c2-cad22e575809",
        "meta": {
          "profile": [
            "http://hl7.org/fhir/us/ecr/StructureDefinition/us-ph-travel-history"
          ],
          "source": [
            "ecr"
          ]
        },
        "code": {
          "coding": [
            {
              "system": "http://snomed.info/sct",
              "code": "420008001",
              "display": "Travel"
            }
          ],
          "text": "Travel History"
        },
        "status": "final",
        "component": [
          {
            "code": {
              "coding": [
                {
                  "system": "http://terminology.hl7.org/CodeSystem/v3-ParticipationType",
                  "code": "LOC",
                  "display": "Location"
                }
              ]
            }
          }
        ],
        "effectiveDateTime": "2022-04-13T08:36:28Z"
      },
      "request": {
        "method": "PUT",
        "url": "Observation/4f434448-9204-4702-56c2-cad22e575809"
      }
    },
    {
      "fullUrl": "urn:uuid:",
      "resource": {
        "resourceType": "Observation",
        "meta": {
          "profile": [
            "http://hl7.org/fhir/us/core/StructureDefinition/us-core-observationresults"
          ],
          "source": [
            "ecr"
          ]
        }
      },
      "request": {
        "method": "PUT",
        "url": "Observation/"
      }
    }
  ]
}
