{
  "resourceType": "Bundle",
  "type": "batch",
  "entry": [
    {
      "fullUrl": "urn:uuid:df33f075-83a1-4d28-ba63-05bcc3339c21",
      "resource": {
        "resourceType": "Composition",
        "id": "df33f075-83a1-4d28-ba63-05bcc3339c21",
        "meta": {
          "profile": [
            "http://hl7.org/fhir/us/ecr/StructureDefinition/eicr-composition"
          ],
          "source": [
            "ecr"
          ]
        },
        "identifier": [
          {
            "use": "official",
            "type": {
              "coding": [
                {
                  "code": "55751-2",
                  "display": "Initial Public Health Case Report",
                  "system": "http://loinc.org"
                }
              ]
            },
            "value": "34682681|64851396"
          }
        ],
        "extension": [
          {
            "url": "http://hl7.org/fhir/StructureDefinition/composition-clinicaldocument-versionNumber",
            "valueString": "2"
          }
        ],
        "status": "final",
        "type": {
          "coding": [
            {
              "code": "55751-2",
              "display": "Initial Public Health Case Report",
              "system": "http://loinc.org"
            }
          ]
        },
        "date": "2022-04-15T05:24:59Z",
        "title": "Initial Public Health Case Report",
        "confidentiality": "N",
        "section": [
          {
            "id": "3e5d0a34-2c60-8934-a031-bf45982d4640",
            "title": "PROBLEMS - DIAGNOSES",
            "text": {
              "status": "generated",
              "div": "<div xmlns=\"http://www.w3.org/1999/xhtml\">PROBLEMS - DIAGNOSES</div>"
            },
            "code": {
              "coding": [
                {
                  "code": "11450-4",
                  "display": "PROBLEM LIST",
                  "system": "http://loinc.org"
                }
              ]
            },
            "mode": "snapshot",
            "entry": [
              {
                "display": "Problem - Closed injury of head (disorder)",
                "reference": "Condition/47c4eafe-d230-03e3-a449-f3d4e8a570bb"
              },
              {
                "display": "Problem - Disease caused by 2019-nCoV",
                "reference": "Condition/7bcd701e-5d28-f178-a33f-64aa74239d54"
              },
              {
                "reference": "Condition/bc63883a-ebd9-370f-0d9f-ad35c8fe7f52"
              },
              {
                "display": "Problem - Hypertensive disorder, systemic arterial (disorder)",
                "reference": "Condition/07559a5f-52d6-186f-25fd-123dd7950656"
              },
              {
                "display": "Problem - Neoplasm of pituitary gland (disorder)",
                "reference": "Condition/063ada0c-960f-8557-e828-76ea3ed99aba"
              },
              {
                "display": "Problem - Cerebrovascular accident (disorder)",
                "reference": "Condition/2b0e32d9-1c75-b38e-c628-165e8fb18782"
              },
              {
                "display": "Problem - Low back strain (disorder)",
                "reference": "Condition/eef12569-0e57-b962-463d-8c74f3f211eb"
              },
              {
                "display": "Problem - Motor vehicle injury (disorder)",
                "reference": "Condition/8fabb65c-a7bc-d78a-ee66-87bc0f6f8f23"
              },
              {
                "display": "Problem - Chronic pain in male pelvis (finding)",
                "reference": "Condition/65565a5f-5d97-9656-fc4f-c3fac1b55e3d"
              },
              {
                "display": "Problem - Strain of neck muscle (disorder)",
                "reference": "Condition/2c4295cc-bde8-63b2-7f48-081683140235"
              },
              {
                "display": "Problem - Cervicogenic headache (finding)",
                "reference": "Condition/6e0fec6b-8384-ad29-0f00-a6c9e11d0a29"
              }
            ]
          },
          {
            "id": "57b79631-078a-d6a0-61c5-d7d78e2dedfe",
            "title": "ENCOUNTERS",
            "text": {
              "status": "generated",
              "div": "<div xmlns=\"http://www.w3.org/1999/xhtml\">ENCOUNTERS</div>"
            },
            "code": {
              "coding": [
                {
                  "code": "46240-8",
                  "display": "History of Encounters",
                  "system": "http://loinc.org"
                }
              ]
            },
            "mode": "snapshot"
          },
          {
            "id": "79564cca-4311-e123-4bf6-e97018aa3815",
            "title": "RESULTS",
            "text": {
              "status": "generated",
              "div": "<div xmlns=\"http://www.w3.org/1999/xhtml\">RESULTS</div>"
            },
            "code": {
              "coding": [
                {
                  "code": "30954-2",
                  "display": "RESULTS",
                  "system": "http://loinc.org"
                }
              ]
            },
            "mode": "snapshot",
            "entry": [
              {
                "reference": "Observation/567cd011-1ea6-f91b-60ab-09caf709b1c3"
              },
              {
                "reference": "Observation/8efa5e7d-565e-7250-37e8-67f254a0e4da"
              },
              {
                "reference": "Observation/0fa8d90f-d8ef-b820-45c9-520ed250d90d"
              },
              {
                "reference": "Observation/4cd4480f-1263-af91-582e-47e9c22b439c"
              },
              {
                "reference": "Observation/f7d15359-89a5-0772-21e4-31ce52e5437f"
              },
              {
                "reference": "Observation/fe9ba4ef-f55b-a08c-eb1b-4ce07056a593"
              },
              {
                "reference": "Observation/47029bdf-761e-e3be-d2f8-4da192856508"
              },
              {
                "reference": "Observation/2c7bda59-ab4c-5e9d-12c1-b0ffad71c907"
              },
              {
                "reference": "Observation/2cbccc67-66fb-1663-a89b-ebfc3d39c237"
              },
              {
                "reference": "Observation/c253daa5-d370-260d-3810-2e19522f729e"
              },
              {
                "reference": "Observation/623c8e0b-e20c-3570-523a-896bdac71423"
              },
              {
                "reference": "Observation/ab4abe54-9f7c-6fed-3ee7-eec961d64671"
              },
              {
                "reference": "Observation/7712e9ca-e7d4-8671-f6b4-5392010af5ab"
              },
              {
                "reference": "Observation/1e3c8378-32d3-27cc-7d39-094fcbf60627"
              },
              {
                "reference": "Observation/371db75c-a45f-4453-1420-6f36c3786b85"
              },
              {
                "reference": "Observation/4e40e55f-1eaa-5715-368f-3b6aa18c8584"
              },
              {
                "reference": "Observation/b1330cad-055e-f461-2ee3-2ddd16e398f6"
              },
              {
                "reference": "Observation/816fa257-9bec-c5d8-4b4f-0efcded5be57"
              },
              {
                "reference": "Observation/598c99dc-d71b-2e02-5b0a-6e345fb80f95"
              },
              {
                "reference": "Observation/4f75b6a9-44be-aee0-e568-f31af913774b"
              },
              {
                "reference": "Observation/6db75d37-db3c-d33a-fb37-30a8587c47b8"
              },
              {
                "reference": "Observation/a33c6147-2e3e-bfba-5f0a-4ca06784bdbf"
              },
              {
                "reference": "Observation/d42ee119-4ec1-2040-8937-a0d3219ee1b8"
              },
              {
                "reference": "Observation/94b7b462-ce01-20cb-0f9c-fa12a3525225"
              },
              {
                "reference": "Observation/25265a82-038e-f103-afa2-80f8fafdbd08"
              },
              {
                "reference": "Observation/c2336f02-0f03-daef-a9c0-552b44f64963"
              },
              {
                "reference": "Observation/1f5a29ee-8457-7335-e3fe-d822444dd275"
              },
              {
                "reference": "Observation/429df413-06a2-d77e-f731-4e97b347bdc0"
              },
              {
                "reference": "Observation/69440382-d882-a856-4f9e-c412e888afab"
              },
              {
                "reference": "Observation/0ea8d3c1-57c5-2634-3abf-c64fa70005a5"
              },
              {
                "reference": "Observation/044e7114-dfcb-aba2-4907-941950460037"
              },
              {
                "reference": "Observation/d229da3a-c1f1-0510-237e-6cc9208ea6ab"
              },
              {
                "reference": "Observation/5344c9f1-66ce-bc57-d9f9-3dc680648eed"
              },
              {
                "reference": "Observation/3d91e4d9-4fad-1596-d17a-c2ea3e475c4a"
              },
              {
                "reference": "Observation/56922e8d-02c0-2496-976c-ff6158390c05"
              },
              {
                "reference": "Observation/b791a0a8-e880-7ca5-9b22-b8d89ed8fa4b"
              },
              {
                "reference": "Observation/b4709b3f-4698-6cf2-c699-cfcacf8a472a"
              },
              {
                "reference": "Observation/066b4676-2063-02ea-17a9-97417d03bf53"
              },
              {
                "reference": "Observation/621276aa-7543-5ee3-bc8d-5727baa1bb73"
              },
              {
                "reference": "Observation/3bd40df1-ef92-7dd5-d887-d35a81202fb0"
              },
              {
                "reference": "Observation/b2c84c18-3a38-0d46-4e30-1b88b00113f8"
              },
              {
                "reference": "Observation/8a321025-e3bf-8461-f322-5eb614b05826"
              },
              {
                "reference": "Observation/10cfcb3f-c5eb-3b8a-3967-3991829c0971"
              },
              {
                "reference": "Observation/338ac407-3f46-6208-7839-45ae1b03d8ae"
              },
              {
                "reference": "Observation/98fe1669-1823-6044-0761-ea0776ac30f0"
              },
              {
                "reference": "Observation/a383999e-d5a1-8a4b-2814-29eac3d9ae90"
              },
              {
                "reference": "Observation/d50a4848-45d3-1623-cd42-3650d1d4612b"
              },
              {
                "reference": "Observation/296a5c8a-9cc8-bb01-2c2c-95b2ce85e370"
              },
              {
                "reference": "Observation/72de05c7-2954-7d58-9dab-1624f33706c2"
              },
              {
                "reference": "Observation/3f1347a8-bb53-bd8f-3392-d8294447704b"
              },
              {
                "reference": "Observation/b72b60ad-c6db-db31-43c2-b348fdca03ac"
              },
              {
                "reference": "Observation/f91e396d-9748-a828-db76-2c70b799c22f"
              },
              {
                "reference": "Observation/9572f82b-1d92-1745-4008-94529eadae37"
              },
              {
                "reference": "Observation/4116587b-88ba-f82b-cb00-de4680119556"
              },
              {
                "reference": "Observation/12a04fcc-3fe7-a05e-d41a-b066d679a37b"
              },
              {
                "reference": "Observation/0be25ccc-24ae-3e09-e44b-8413103ce141"
              },
              {
                "reference": "Observation/c68874a7-ef3b-6e53-0e79-ec6f0aff327e"
              },
              {
                "reference": "Observation/94d912c1-8f4e-c6b0-e116-ad22cdbcb2cd"
              },
              {
                "reference": "Observation/920a3576-b48f-31ae-2b71-73c765a7c9e0"
              },
              {
                "reference": "Observation/235dd3a8-f756-89eb-8d3d-d85ea0ab21c8"
              },
              {
                "reference": "Observation/05b611f6-8c46-5e19-6bb0-5fb1708b2449"
              }
            ]
          },
          {
            "id": "3bb3aac3-d469-3fba-d196-ba5e7a2c2801",
            "title": "Medications Administered",
            "text": {
              "status": "generated",
              "div": "<div xmlns=\"http://www.w3.org/1999/xhtml\">Medications Administered</div>"
            },
            "code": {
              "coding": [
                {
                  "code": "29549-3",
                  "display": "Medications Administered",
                  "system": "http://loinc.org"
                }
              ]
            },
            "mode": "snapshot"
          },
          {
            "id": "dd08df91-869b-46df-dd36-c5c0f2ad2eae",
            "title": "IMMUNIZATIONS",
            "text": {
              "status": "generated",
              "div": "<div xmlns=\"http://www.w3.org/1999/xhtml\">IMMUNIZATIONS</div>"
            },
            "code": {
              "coding": [
                {
                  "code": "11369-6",
                  "display": "History of immunizations",
                  "system": "http://loinc.org"
                }
              ]
            },
            "mode": "snapshot"
          },
          {
            "id": "c74504df-1bdc-137f-3790-44f6cea7fa89",
            "title": "SOCIAL HISTORY",
            "text": {
              "status": "generated",
              "div": "<div xmlns=\"http://www.w3.org/1999/xhtml\">SOCIAL HISTORY</div>"
            },
            "code": {
              "coding": [
                {
                  "code": "29762-2",
                  "display": "Social History",
                  "system": "http://loinc.org"
                }
              ]
            },
            "mode": "snapshot"
          },
          {
            "id": "7dbd51e8-1c15-8cfa-cbce-f6f4b9a1ed5d",
            "title": "Plan of Treatment",
            "text": {
              "status": "generated",
              "div": "<div xmlns=\"http://www.w3.org/1999/xhtml\">Plan of Treatment</div>"
            },
            "code": {
              "coding": [
                {
                  "code": "18776-5",
                  "display": "Treatment Plan",
                  "system": "http://loinc.org"
                }
              ]
            },
            "mode": "snapshot"
          },
          {
            "id": "3bf22954-7e60-35a6-45d5-322ce2bae993",
            "title": "History of Present Illness",
            "text": {
              "status": "generated",
              "div": "<div xmlns=\"http://www.w3.org/1999/xhtml\">History of Present Illness</div>"
            },
            "code": {
              "coding": [
                {
                  "code": "10164-2",
                  "display": "History of Present Illness",
                  "system": "http://loinc.org"
                }
              ]
            },
            "mode": "snapshot"
          },
          {
            "id": "9f06fac1-cf69-4b39-ac51-fcf1e80aedf2",
            "title": "Reason For Visit",
            "text": {
              "status": "generated",
              "div": "<div xmlns=\"http://www.w3.org/1999/xhtml\">Reason For Visit</div>"
            },
            "code": {
              "coding": [
                {
                  "code": "29299-5",
                  "display": "Reason For Visit",
                  "system": "http://loinc.org"
                }
              ]
            },
            "mode": "snapshot"
          },
          {
            "id": "edd6100d-fcef-07ce-10fb-2cc09042142a",
            "title": "Reportability Response Information Section",
            "text": {
              "status": "generated",
              "div": "<div xmlns=\"http://www.w3.org/1999/xhtml\">Reportability Response Information Section</div>"
            },
            "extension": [
              {
                "url": "http://hl7.org/fhir/us/ecr/StructureDefinition/rr-composition",
                "valueIdentifier": {
                  "use": "official",
                  "type": {
                    "coding": [
                      {
                        "code": "88085-6",
                        "display": "Reportability response report Document Public health",
                        "system": "http://loinc.org"
                      }
                    ]
                  },
                  "value": "d5b7773a-47e6-4b51-92da-9ca151181348"
                }
              },
              {
                "url": "http://hl7.org/fhir/us/ecr/StructureDefinition/rr-eicr-processing-status-extension",
                "valueCodeableConcept": {
                  "coding": [
                    {
                      "code": "RRVS19",
                      "display": "eICR processed",
                      "system": "urn:oid:2.16.840.1.114222.4.5.274"
                    }
                  ]
                }
              }
            ],
            "code": {
              "coding": [
                {
                  "code": "88085-6",
                  "display": "Reportability response report Document Public health",
                  "system": "http://loinc.org"
                }
              ]
            },
            "entry": [
              {
                "display": "Relevant Reportable Condition Observation - Coronavirus infection (disorder)",
                "reference": "Observation/3dfef8a1-dcd0-4013-ba05-858820261eb6"
              },
              {
                "display": "Relevant Reportable Condition Observation - Disease caused by severe acute respiratory syndrome coronavirus 2 (disorder)",
                "reference": "Observation/60951356-d352-40ed-b7b8-acba8d3e7a0c"
              },
              {
                "display": "Relevant Reportable Condition Observation - Malignant neoplastic disease (disorder)",
                "reference": "Observation/3d50b953-b99f-4711-a6dc-e6bc0371944e"
              },
              {
                "display": "Relevant Reportable Condition Observation - Disease caused by severe acute respiratory syndrome coronavirus 2 (disorder)",
                "reference": "Observation/f1be1853-710e-4f44-9ce4-2d6cfb9d04fc"
              }
            ]
          }
        ],
        "subject": {
          "reference": "Patient/08aa51f0-4e02-4d29-8210-cf0dc558100b"
        },
        "encounter": {
          "reference": "Encounter/c133cf39-a5b1-25b8-e3d0-6e9d84743da2"
        },
        "custodian": {
          "reference": "Organization/430c88de-09b3-f835-b008-e93f59ce7f15"
        },
        "author": [
          {
            "reference": "Practitioner/61bf6e4e-69e9-a596-fbff-d8042eb02b6d"
          }
        ]
      },
      "request": {
        "method": "PUT",
        "url": "Composition/df33f075-83a1-4d28-ba63-05bcc3339c21"
      }
    },
    {
      "fullUrl": "urn:uuid:c133cf39-a5b1-25b8-e3d0-6e9d84743da2",
      "resource": {
        "resourceType": "Encounter",
        "id": "c133cf39-a5b1-25b8-e3d0-6e9d84743da2",
        "status": "unknown",
        "class": {
          "code": "OBSENC",
          "display": "observation encounter",
          "system": "urn:oid:2.16.840.1.113883.5.4"
        },
        "identifier": [
          {
            "system": "urn:oid:2.16.840.1.113883",
            "value": "Encounter/64851396/_history/41"
          },
          {
            "system": "urn:oid:2.16.840.1.113883.17.8797.200",
            "value": "5004458898"
          }
        ],
        "period": {
          "start": "2022-04-13T08:36:00Z",
          "end": "2022-04-14T00:05:00Z"
        },
        "subject": {
          "reference": "Patient/08aa51f0-4e02-4d29-8210-cf0dc558100b"
        },
        "location": [
          {
            "id": "2.16.840.1.113883.4.6",
            "location": {
              "reference": "Location/9d62f0ba-2587-a556-b341-fb0eb65baecd",
              "display": "HHN-Henderson Hospital"
            },
            "extension": [
              {
                "url": "http://build.fhir.org/ig/HL7/case-reporting/StructureDefinition-us-ph-location-definitions.html#Location.type",
                "valueCodeableConcept": {
                  "coding": [
                    {
                      "code": "team",
                      "display": "Organizational team",
                      "system": "urn:oid:2.16.840.1.113883.4.642.3.414"
                    }
                  ]
                }
              }
            ]
          }
        ],
        "participant": [
          {
            "type": [
              {
                "coding": [
                  {
                    "system": "http://terminology.hl7.org/CodeSystem/v3-ParticipationType",
                    "code": "ATND"
                  }
                ]
              }
            ],
            "individual": {
              "reference": "Practitioner/61bf6e4e-69e9-a596-fbff-d8042eb02b6d"
            }
          }
        ],
        "meta": {
          "source": [
            "ecr"
          ]
        }
      },
      "request": {
        "method": "PUT",
        "url": "Encounter/c133cf39-a5b1-25b8-e3d0-6e9d84743da2"
      }
    },
    {
      "fullUrl": "urn:uuid:9d62f0ba-2587-a556-b341-fb0eb65baecd",
      "resource": {
        "resourceType": "Location",
        "id": "9d62f0ba-2587-a556-b341-fb0eb65baecd",
        "identifier": [
          {
            "value": "2.16.840.1.113883.4.6"
          }
        ],
        "name": "HHN-Henderson Hospital",
        "address": {
          "line": [
            "1050 W. Galleria Drive"
          ],
          "city": "Henderson",
          "state": "NV",
          "country": "USA",
          "postalCode": "89011"
        },
        "telecom": [
          {
            "system": "phone",
            "value": "(702)963-7000",
            "use": "work"
          },
          {
            "system": "phone",
            "value": "(702)963-7000",
            "use": "work"
          }
        ],
        "type": [
          {
            "coding": [
              {
                "code": "team",
                "display": "Organizational team",
                "system": "urn:oid:2.16.840.1.113883.4.642.3.414"
              }
            ]
          }
        ],
        "meta": {
          "source": [
            "ecr"
          ]
        }
      },
      "request": {
        "method": "PUT",
        "url": "Location/9d62f0ba-2587-a556-b341-fb0eb65baecd"
      }
    },
    {
      "fullUrl": "urn:uuid:61bf6e4e-69e9-a596-fbff-d8042eb02b6d",
      "resource": {
        "resourceType": "Practitioner",
        "id": "61bf6e4e-69e9-a596-fbff-d8042eb02b6d",
        "meta": {
          "profile": [
            "http://hl7.org/fhir/us/core/StructureDefinition/us-core-practitioner"
          ],
          "source": [
            "ecr"
          ]
        },
        "extension": [
          {
            "url": "http://hl7.org/fhir/StructureDefinition/_datatype",
            "valueString": "Responsible Party"
          }
        ],
        "identifier": [
          {
            "system": "http://hl7.org/fhir/sid/us-npi",
            "value": "1841601747"
          }
        ],
        "name": [
          {
            "use": "usual",
            "text": "HHN-Henderson Hospital"
          },
          {
            "family": "Huynh",
            "given": [
              "Kovin"
            ]
          }
        ],
        "address": [
          {
            "line": [
              "620 Shadow Lane"
            ],
            "city": "Las Vegas",
            "state": "NV",
            "country": "US",
            "postalCode": "89106"
          },
          {
            "line": [
              "1050 W. Galleria Drive"
            ],
            "city": "Henderson",
            "state": "NV",
            "country": "USA",
            "postalCode": "89011"
          }
        ],
        "telecom": [
          {
            "system": "phone",
            "value": "(702)963-7000",
            "use": "work"
          },
          {
            "system": "phone",
            "value": "(702)963-7000",
            "use": "work"
          },
          {
            "system": "phone",
            "value": "((70)2)8-00-5"
          }
        ]
      },
      "request": {
        "method": "PUT",
        "url": "Practitioner/61bf6e4e-69e9-a596-fbff-d8042eb02b6d"
      }
    },
    {
      "fullUrl": "urn:uuid:3dfef8a1-dcd0-4013-ba05-858820261eb6",
      "resource": {
        "resourceType": "Observation",
        "id": "3dfef8a1-dcd0-4013-ba05-858820261eb6",
        "meta": {
          "profile": [
            "http://hl7.org/fhir/us/core/StructureDefinition/us-core-observationresults"
          ],
          "source": [
            "ecr"
          ]
        },
        "identifier": [
          {
            "system": "urn:ietf:rfc:3986",
            "value": "urn:uuid:3dfef8a1-dcd0-4013-ba05-858820261eb6"
          }
        ],
        "status": "final",
        "code": {
          "coding": [
            {
              "code": "64572001",
              "display": "Condition",
              "system": "http://snomed.info/sct"
            },
            {
              "code": "75323-6",
              "display": "Condition",
              "system": "http://loinc.org"
            }
          ]
        },
        "valueCodeableConcept": {
          "coding": [
            {
              "code": "186747009",
              "display": "Coronavirus infection (disorder)",
              "system": "http://snomed.info/sct"
            }
          ]
        }
      },
      "request": {
        "method": "PUT",
        "url": "Observation/3dfef8a1-dcd0-4013-ba05-858820261eb6"
      }
    },
    {
      "fullUrl": "urn:uuid:60951356-d352-40ed-b7b8-acba8d3e7a0c",
      "resource": {
        "resourceType": "Observation",
        "id": "60951356-d352-40ed-b7b8-acba8d3e7a0c",
        "meta": {
          "profile": [
            "http://hl7.org/fhir/us/core/StructureDefinition/us-core-observationresults"
          ],
          "source": [
            "ecr"
          ]
        },
        "identifier": [
          {
            "system": "urn:ietf:rfc:3986",
            "value": "urn:uuid:60951356-d352-40ed-b7b8-acba8d3e7a0c"
          }
        ],
        "status": "final",
        "code": {
          "coding": [
            {
              "code": "64572001",
              "display": "Condition",
              "system": "http://snomed.info/sct"
            },
            {
              "code": "75323-6",
              "display": "Condition",
              "system": "http://loinc.org"
            }
          ]
        },
        "valueCodeableConcept": {
          "coding": [
            {
              "code": "840539006",
              "display": "Disease caused by severe acute respiratory syndrome coronavirus 2 (disorder)",
              "system": "http://snomed.info/sct"
            }
          ]
        }
      },
      "request": {
        "method": "PUT",
        "url": "Observation/60951356-d352-40ed-b7b8-acba8d3e7a0c"
      }
    },
    {
      "fullUrl": "urn:uuid:3d50b953-b99f-4711-a6dc-e6bc0371944e",
      "resource": {
        "resourceType": "Observation",
        "id": "3d50b953-b99f-4711-a6dc-e6bc0371944e",
        "meta": {
          "profile": [
            "http://hl7.org/fhir/us/core/StructureDefinition/us-core-observationresults"
          ],
          "source": [
            "ecr"
          ]
        },
        "identifier": [
          {
            "system": "urn:ietf:rfc:3986",
            "value": "urn:uuid:3d50b953-b99f-4711-a6dc-e6bc0371944e"
          }
        ],
        "status": "final",
        "code": {
          "coding": [
            {
              "code": "64572001",
              "display": "Condition",
              "system": "http://snomed.info/sct"
            },
            {
              "code": "75323-6",
              "display": "Condition",
              "system": "http://loinc.org"
            }
          ]
        },
        "valueCodeableConcept": {
          "coding": [
            {
              "code": "363346000",
              "display": "Malignant neoplastic disease (disorder)",
              "system": "http://snomed.info/sct"
            }
          ]
        }
      },
      "request": {
        "method": "PUT",
        "url": "Observation/3d50b953-b99f-4711-a6dc-e6bc0371944e"
      }
    },
    {
      "fullUrl": "urn:uuid:f1be1853-710e-4f44-9ce4-2d6cfb9d04fc",
      "resource": {
        "resourceType": "Observation",
        "id": "f1be1853-710e-4f44-9ce4-2d6cfb9d04fc",
        "meta": {
          "profile": [
            "http://hl7.org/fhir/us/core/StructureDefinition/us-core-observationresults"
          ],
          "source": [
            "ecr"
          ]
        },
        "identifier": [
          {
            "system": "urn:ietf:rfc:3986",
            "value": "urn:uuid:f1be1853-710e-4f44-9ce4-2d6cfb9d04fc"
          }
        ],
        "status": "final",
        "code": {
          "coding": [
            {
              "code": "64572001",
              "display": "Condition",
              "system": "http://snomed.info/sct"
            },
            {
              "code": "75323-6",
              "display": "Condition",
              "system": "http://loinc.org"
            }
          ]
        },
        "valueCodeableConcept": {
          "coding": [
            {
              "code": "840539006",
              "display": "Disease caused by severe acute respiratory syndrome coronavirus 2 (disorder)",
              "system": "http://snomed.info/sct"
            }
          ]
        }
      },
      "request": {
        "method": "PUT",
        "url": "Observation/f1be1853-710e-4f44-9ce4-2d6cfb9d04fc"
      }
    },
    {
      "fullUrl": "urn:uuid:430c88de-09b3-f835-b008-e93f59ce7f15",
      "resource": {
        "resourceType": "Organization",
        "id": "430c88de-09b3-f835-b008-e93f59ce7f15",
        "identifier": [
          {
            "system": "http://hl7.org/fhir/sid/us-npi",
            "value": "1003281452"
          }
        ],
        "name": "HHN-Henderson Hospital",
        "address": [
          {
            "line": [
              "1050 W. Galleria Drive"
            ],
            "city": "Henderson",
            "state": "NV",
            "country": "USA",
            "postalCode": "89011"
          }
        ],
        "telecom": [
          {
            "system": "phone",
            "value": "(702)963-7000",
            "use": "work"
          }
        ],
        "meta": {
          "source": [
            "ecr"
          ]
        }
      },
      "request": {
        "method": "PUT",
        "url": "Organization/430c88de-09b3-f835-b008-e93f59ce7f15"
      }
    },
    {
      "fullUrl": "urn:uuid:08aa51f0-4e02-4d29-8210-cf0dc558100b",
      "resource": {
        "resourceType": "Patient",
        "id": "08aa51f0-4e02-4d29-8210-cf0dc558100b",
        "meta": {
          "profile": [
            "http://hl7.org/fhir/us/core/StructureDefinition/us-core-patient"
          ],
          "source": [
            "ecr"
          ]
        },
        "identifier": [
          {
            "system": "urn:oid:2.16.840.1.113883",
            "value": "Patient/34682681/_history/1181"
          },
          {
            "system": "urn:oid:2.16.840.1.113883.3.2063.100",
            "value": "63716237"
          },
          {
            "system": "urn:oid:2.16.840.1.113883.3.2062.100",
            "value": "6227227"
          },
          {
            "system": "urn:oid:2.16.840.1.113883.17.8797.100",
            "value": "8122469"
          },
          {
            "system": "urn:oid:2.16.840.1.113883.3.2053.100",
            "value": "35534012"
          },
          {
            "system": "urn:oid:2.16.840.1.113883.3.2061.100",
            "value": "5713666"
          }
        ],
        "name": [
          {
            "family": "WILLIS",
            "given": [
              "JASON",
              "ANDRE"
            ]
          }
        ],
        "birthDate": "1975-01-01",
        "gender": "male",
        "extension": [
          {
            "url": "http://hl7.org/fhir/us/core/StructureDefinition/us-core-race",
            "extension": [
              {
                "url": "ombCategory",
                "valueCoding": {
                  "code": "2054-5",
                  "display": "Black or African American"
                }
              },
              {
                "url": "text",
                "valueString": "Black or African American"
              }
            ]
          },
          {
            "url": "http://hl7.org/fhir/us/core/StructureDefinition/us-core-ethnicity",
            "extension": [
              {
                "url": "ombCategory",
                "valueCoding": {
                  "code": "2186-5",
                  "display": "Not Hispanic or Latino"
                }
              },
              {
                "url": "text",
                "valueString": "Not Hispanic or Latino"
              }
            ]
          },
          {
            "url": "http://hl7.org/fhir/us/core/StructureDefinition/us-core-birthsex",
            "extension": [
              {
                "url": "value",
                "valueCodeableConcept": {
                  "coding": [
                    {
                      "code": "M",
                      "display": "Male",
                      "system": "urn:oid:2.16.840.1.113883.5.1"
                    }
                  ]
                }
              }
            ]
          }
        ],
        "address": [
          {
            "line": [
              "4166 S WALL ST"
            ],
            "city": "LOS ANGELES",
            "state": "CA",
            "country": "US",
            "postalCode": "90011-1111"
          }
        ],
        "telecom": [
          {
            "system": "phone",
            "value": "+14804508877"
          },
          {
            "system": "phone",
            "value": "+17028443476",
            "use": "work"
          },
          {
            "system": "phone",
            "value": "+17028443476",
            "use": "home"
          },
          {
            "system": "email",
            "value": "JASONWILLISH2027@GMAIL.COM"
          }
        ],
        "communication": [
          {
            "language": {
              "coding": [
                {
                  "system": "urn:ietf:bcp:47",
                  "code": "en",
                  "display": "English"
                }
              ]
            }
          }
        ]
      },
      "request": {
        "method": "PUT",
        "url": "Patient/08aa51f0-4e02-4d29-8210-cf0dc558100b"
      }
    },
    {
      "fullUrl": "urn:uuid:2c7a1717-cad5-7117-eaa8-e7ed64a5b5b5",
      "resource": {
        "resourceType": "DiagnosticReport",
        "id": "2c7a1717-cad5-7117-eaa8-e7ed64a5b5b5",
        "identifier": [
          {
            "system": "urn:ietf:rfc:3986",
            "value": "urn:uuid:ae2440c6-52ff-4ed8-a2d0-0a75fd9b188e"
          }
        ],
        "status": "final",
        "code": {
          "coding": [
            {
              "code": "9830-1",
              "system": "http://loinc.org"
            }
          ]
        },
        "subject": {
          "reference": "Patient/08aa51f0-4e02-4d29-8210-cf0dc558100b"
        },
        "result": [
          {
            "reference": "Observation/567cd011-1ea6-f91b-60ab-09caf709b1c3"
          }
        ],
        "meta": {
          "source": [
            "ecr"
          ]
        }
      },
      "request": {
        "method": "PUT",
        "url": "DiagnosticReport/2c7a1717-cad5-7117-eaa8-e7ed64a5b5b5"
      }
    },
    {
      "fullUrl": "urn:uuid:567cd011-1ea6-f91b-60ab-09caf709b1c3",
      "resource": {
        "resourceType": "Observation",
        "id": "567cd011-1ea6-f91b-60ab-09caf709b1c3",
        "meta": {
          "profile": [
            "http://hl7.org/fhir/us/core/StructureDefinition/us-core-observationresults"
          ],
          "source": [
            "ecr"
          ]
        },
        "identifier": [
          {
            "system": "urn:oid:2.16.840.1.113883",
            "value": "https://fhir-ehr.cerner.com/r4/da0b5d99-573c-4f5e-aaf6-8d39fa93d033/Observation/M-19270371715/_history/1"
          }
        ],
        "category": [
          {
            "coding": [
              {
                "system": "http://terminology.hl7.org/CodeSystem/observation-category",
                "code": "laboratory"
              }
            ]
          }
        ],
        "status": "final",
        "code": {
          "coding": [
            {
              "code": "9830-1",
              "system": "http://loinc.org"
            }
          ]
        },
        "effectiveDateTime": "2022-04-13T12:38:00Z",
        "valueQuantity": {
          "value": 4,
          "unit": "null"
        },
        "interpretation": [
          {
            "coding": [
              {
                "code": "N",
                "display": "Normal",
                "system": "http://terminology.hl7.org/CodeSystem/v3-ObservationInterpretation"
              }
            ]
          }
        ],
        "subject": {
          "reference": "Patient/08aa51f0-4e02-4d29-8210-cf0dc558100b"
        }
      },
      "request": {
        "method": "PUT",
        "url": "Observation/567cd011-1ea6-f91b-60ab-09caf709b1c3"
      }
    },
    {
      "fullUrl": "urn:uuid:fd403ec7-be49-42e9-558d-0666a00b3d03",
      "resource": {
        "resourceType": "DiagnosticReport",
        "id": "fd403ec7-be49-42e9-558d-0666a00b3d03",
        "identifier": [
          {
            "system": "urn:ietf:rfc:3986",
            "value": "urn:uuid:253bf5ee-e85a-4e33-9389-0b66c5366fc7"
          }
        ],
        "status": "final",
        "code": {
          "coding": [
            {
              "code": "2777-1",
              "system": "http://loinc.org"
            }
          ]
        },
        "subject": {
          "reference": "Patient/08aa51f0-4e02-4d29-8210-cf0dc558100b"
        },
        "result": [
          {
            "reference": "Observation/8efa5e7d-565e-7250-37e8-67f254a0e4da"
          }
        ],
        "meta": {
          "source": [
            "ecr"
          ]
        }
      },
      "request": {
        "method": "PUT",
        "url": "DiagnosticReport/fd403ec7-be49-42e9-558d-0666a00b3d03"
      }
    },
    {
      "fullUrl": "urn:uuid:8efa5e7d-565e-7250-37e8-67f254a0e4da",
      "resource": {
        "resourceType": "Observation",
        "id": "8efa5e7d-565e-7250-37e8-67f254a0e4da",
        "meta": {
          "profile": [
            "http://hl7.org/fhir/us/core/StructureDefinition/us-core-observationresults"
          ],
          "source": [
            "ecr"
          ]
        },
        "identifier": [
          {
            "system": "urn:oid:2.16.840.1.113883",
            "value": "https://fhir-ehr.cerner.com/r4/da0b5d99-573c-4f5e-aaf6-8d39fa93d033/Observation/M-19270005457/_history/1"
          }
        ],
        "category": [
          {
            "coding": [
              {
                "system": "http://terminology.hl7.org/CodeSystem/observation-category",
                "code": "laboratory"
              }
            ]
          }
        ],
        "status": "final",
        "code": {
          "coding": [
            {
              "code": "2777-1",
              "system": "http://loinc.org"
            }
          ]
        },
        "effectiveDateTime": "2022-04-13T12:38:00Z",
        "valueQuantity": {
          "value": 4.1,
          "unit": "mg/dL"
        },
        "interpretation": [
          {
            "coding": [
              {
                "code": "N",
                "display": "Normal",
                "system": "http://terminology.hl7.org/CodeSystem/v3-ObservationInterpretation"
              }
            ]
          }
        ],
        "subject": {
          "reference": "Patient/08aa51f0-4e02-4d29-8210-cf0dc558100b"
        }
      },
      "request": {
        "method": "PUT",
        "url": "Observation/8efa5e7d-565e-7250-37e8-67f254a0e4da"
      }
    },
    {
      "fullUrl": "urn:uuid:8ea64f64-7f8c-fa8a-3f91-a27727e83711",
      "resource": {
        "resourceType": "DiagnosticReport",
        "id": "8ea64f64-7f8c-fa8a-3f91-a27727e83711",
        "identifier": [
          {
            "system": "urn:ietf:rfc:3986",
            "value": "urn:uuid:d5cad7fe-f1f8-4b71-8b37-2fd30a827920"
          }
        ],
        "status": "final",
        "code": {
          "coding": [
            {
              "code": "13458-5",
              "system": "http://loinc.org"
            }
          ]
        },
        "subject": {
          "reference": "Patient/08aa51f0-4e02-4d29-8210-cf0dc558100b"
        },
        "result": [
          {
            "reference": "Observation/0fa8d90f-d8ef-b820-45c9-520ed250d90d"
          }
        ],
        "meta": {
          "source": [
            "ecr"
          ]
        }
      },
      "request": {
        "method": "PUT",
        "url": "DiagnosticReport/8ea64f64-7f8c-fa8a-3f91-a27727e83711"
      }
    },
    {
      "fullUrl": "urn:uuid:0fa8d90f-d8ef-b820-45c9-520ed250d90d",
      "resource": {
        "resourceType": "Observation",
        "id": "0fa8d90f-d8ef-b820-45c9-520ed250d90d",
        "meta": {
          "profile": [
            "http://hl7.org/fhir/us/core/StructureDefinition/us-core-observationresults"
          ],
          "source": [
            "ecr"
          ]
        },
        "identifier": [
          {
            "system": "urn:oid:2.16.840.1.113883",
            "value": "https://fhir-ehr.cerner.com/r4/da0b5d99-573c-4f5e-aaf6-8d39fa93d033/Observation/M-19270371713/_history/1"
          }
        ],
        "category": [
          {
            "coding": [
              {
                "system": "http://terminology.hl7.org/CodeSystem/observation-category",
                "code": "laboratory"
              }
            ]
          }
        ],
        "status": "final",
        "code": {
          "coding": [
            {
              "code": "13458-5",
              "system": "http://loinc.org"
            }
          ]
        },
        "effectiveDateTime": "2022-04-13T12:38:00Z",
        "valueQuantity": {
          "value": 34.0,
          "unit": "mg/dL"
        },
        "subject": {
          "reference": "Patient/08aa51f0-4e02-4d29-8210-cf0dc558100b"
        }
      },
      "request": {
        "method": "PUT",
        "url": "Observation/0fa8d90f-d8ef-b820-45c9-520ed250d90d"
      }
    },
    {
      "fullUrl": "urn:uuid:4db80f5e-f24b-f52c-7186-8826477b7b91",
      "resource": {
        "resourceType": "DiagnosticReport",
        "id": "4db80f5e-f24b-f52c-7186-8826477b7b91",
        "identifier": [
          {
            "system": "urn:ietf:rfc:3986",
            "value": "urn:uuid:f4e562ca-c444-4606-b5fe-c4d1edae1a84"
          }
        ],
        "status": "final",
        "code": {
          "coding": [
            {
              "code": "18262-6",
              "system": "http://loinc.org"
            }
          ]
        },
        "subject": {
          "reference": "Patient/08aa51f0-4e02-4d29-8210-cf0dc558100b"
        },
        "result": [
          {
            "reference": "Observation/4cd4480f-1263-af91-582e-47e9c22b439c"
          }
        ],
        "meta": {
          "source": [
            "ecr"
          ]
        }
      },
      "request": {
        "method": "PUT",
        "url": "DiagnosticReport/4db80f5e-f24b-f52c-7186-8826477b7b91"
      }
    },
    {
      "fullUrl": "urn:uuid:4cd4480f-1263-af91-582e-47e9c22b439c",
      "resource": {
        "resourceType": "Observation",
        "id": "4cd4480f-1263-af91-582e-47e9c22b439c",
        "meta": {
          "profile": [
            "http://hl7.org/fhir/us/core/StructureDefinition/us-core-observationresults"
          ],
          "source": [
            "ecr"
          ]
        },
        "identifier": [
          {
            "system": "urn:oid:2.16.840.1.113883",
            "value": "https://fhir-ehr.cerner.com/r4/da0b5d99-573c-4f5e-aaf6-8d39fa93d033/Observation/M-19270371709/_history/1"
          }
        ],
        "category": [
          {
            "coding": [
              {
                "system": "http://terminology.hl7.org/CodeSystem/observation-category",
                "code": "laboratory"
              }
            ]
          }
        ],
        "status": "final",
        "code": {
          "coding": [
            {
              "code": "18262-6",
              "system": "http://loinc.org"
            }
          ]
        },
        "effectiveDateTime": "2022-04-13T12:38:00Z",
        "valueQuantity": {
          "value": 81,
          "unit": "mg/dL"
        },
        "interpretation": [
          {
            "coding": [
              {
                "code": "N",
                "display": "Normal",
                "system": "http://terminology.hl7.org/CodeSystem/v3-ObservationInterpretation"
              }
            ]
          }
        ],
        "subject": {
          "reference": "Patient/08aa51f0-4e02-4d29-8210-cf0dc558100b"
        }
      },
      "request": {
        "method": "PUT",
        "url": "Observation/4cd4480f-1263-af91-582e-47e9c22b439c"
      }
    },
    {
      "fullUrl": "urn:uuid:fb69bd2c-0de4-9d20-30fd-bc2db0a716af",
      "resource": {
        "resourceType": "DiagnosticReport",
        "id": "fb69bd2c-0de4-9d20-30fd-bc2db0a716af",
        "identifier": [
          {
            "system": "urn:ietf:rfc:3986",
            "value": "urn:uuid:c75c0d9e-144b-49a7-bdf6-09b2ae3d48ea"
          }
        ],
        "status": "final",
        "code": {
          "coding": [
            {
              "code": "2571-8",
              "system": "http://loinc.org"
            }
          ]
        },
        "subject": {
          "reference": "Patient/08aa51f0-4e02-4d29-8210-cf0dc558100b"
        },
        "result": [
          {
            "reference": "Observation/f7d15359-89a5-0772-21e4-31ce52e5437f"
          }
        ],
        "meta": {
          "source": [
            "ecr"
          ]
        }
      },
      "request": {
        "method": "PUT",
        "url": "DiagnosticReport/fb69bd2c-0de4-9d20-30fd-bc2db0a716af"
      }
    },
    {
      "fullUrl": "urn:uuid:f7d15359-89a5-0772-21e4-31ce52e5437f",
      "resource": {
        "resourceType": "Observation",
        "id": "f7d15359-89a5-0772-21e4-31ce52e5437f",
        "meta": {
          "profile": [
            "http://hl7.org/fhir/us/core/StructureDefinition/us-core-observationresults"
          ],
          "source": [
            "ecr"
          ]
        },
        "identifier": [
          {
            "system": "urn:oid:2.16.840.1.113883",
            "value": "https://fhir-ehr.cerner.com/r4/da0b5d99-573c-4f5e-aaf6-8d39fa93d033/Observation/M-19270371705/_history/1"
          }
        ],
        "category": [
          {
            "coding": [
              {
                "system": "http://terminology.hl7.org/CodeSystem/observation-category",
                "code": "laboratory"
              }
            ]
          }
        ],
        "status": "final",
        "code": {
          "coding": [
            {
              "code": "2571-8",
              "system": "http://loinc.org"
            }
          ]
        },
        "effectiveDateTime": "2022-04-13T12:38:00Z",
        "valueQuantity": {
          "value": 168,
          "unit": "mg/dL"
        },
        "interpretation": [
          {
            "coding": [
              {
                "code": "H",
                "display": "High",
                "system": "http://terminology.hl7.org/CodeSystem/v3-ObservationInterpretation"
              }
            ]
          }
        ],
        "subject": {
          "reference": "Patient/08aa51f0-4e02-4d29-8210-cf0dc558100b"
        }
      },
      "request": {
        "method": "PUT",
        "url": "Observation/f7d15359-89a5-0772-21e4-31ce52e5437f"
      }
    },
    {
      "fullUrl": "urn:uuid:8e30c861-c9d4-e98d-dac4-646a183726e9",
      "resource": {
        "resourceType": "DiagnosticReport",
        "id": "8e30c861-c9d4-e98d-dac4-646a183726e9",
        "identifier": [
          {
            "system": "urn:ietf:rfc:3986",
            "value": "urn:uuid:f653c0a2-3259-494c-91d9-fa86b8e9b8e0"
          }
        ],
        "status": "final",
        "code": {
          "coding": [
            {
              "code": "14979-9",
              "system": "http://loinc.org"
            }
          ]
        },
        "subject": {
          "reference": "Patient/08aa51f0-4e02-4d29-8210-cf0dc558100b"
        },
        "result": [
          {
            "reference": "Observation/fe9ba4ef-f55b-a08c-eb1b-4ce07056a593"
          }
        ],
        "meta": {
          "source": [
            "ecr"
          ]
        }
      },
      "request": {
        "method": "PUT",
        "url": "DiagnosticReport/8e30c861-c9d4-e98d-dac4-646a183726e9"
      }
    },
    {
      "fullUrl": "urn:uuid:fe9ba4ef-f55b-a08c-eb1b-4ce07056a593",
      "resource": {
        "resourceType": "Observation",
        "id": "fe9ba4ef-f55b-a08c-eb1b-4ce07056a593",
        "meta": {
          "profile": [
            "http://hl7.org/fhir/us/core/StructureDefinition/us-core-observationresults"
          ],
          "source": [
            "ecr"
          ]
        },
        "identifier": [
          {
            "system": "urn:oid:2.16.840.1.113883",
            "value": "https://fhir-ehr.cerner.com/r4/da0b5d99-573c-4f5e-aaf6-8d39fa93d033/Observation/M-19270007218/_history/1"
          }
        ],
        "category": [
          {
            "coding": [
              {
                "system": "http://terminology.hl7.org/CodeSystem/observation-category",
                "code": "laboratory"
              }
            ]
          }
        ],
        "status": "final",
        "code": {
          "coding": [
            {
              "code": "14979-9",
              "system": "http://loinc.org"
            }
          ]
        },
        "effectiveDateTime": "2022-04-13T12:38:00Z",
        "valueQuantity": {
          "value": 31,
          "unit": "Seconds"
        },
        "interpretation": [
          {
            "coding": [
              {
                "code": "N",
                "display": "Normal",
                "system": "http://terminology.hl7.org/CodeSystem/v3-ObservationInterpretation"
              }
            ]
          }
        ],
        "subject": {
          "reference": "Patient/08aa51f0-4e02-4d29-8210-cf0dc558100b"
        }
      },
      "request": {
        "method": "PUT",
        "url": "Observation/fe9ba4ef-f55b-a08c-eb1b-4ce07056a593"
      }
    },
    {
      "fullUrl": "urn:uuid:dba54705-0872-cde3-0a65-6a000b97f057",
      "resource": {
        "resourceType": "DiagnosticReport",
        "id": "dba54705-0872-cde3-0a65-6a000b97f057",
        "identifier": [
          {
            "system": "urn:ietf:rfc:3986",
            "value": "urn:uuid:28ca7ace-e38e-499d-a498-d026867122ef"
          }
        ],
        "status": "final",
        "code": {
          "coding": [
            {
              "code": "5902-2",
              "system": "http://loinc.org"
            }
          ]
        },
        "subject": {
          "reference": "Patient/08aa51f0-4e02-4d29-8210-cf0dc558100b"
        },
        "result": [
          {
            "reference": "Observation/47029bdf-761e-e3be-d2f8-4da192856508"
          }
        ],
        "meta": {
          "source": [
            "ecr"
          ]
        }
      },
      "request": {
        "method": "PUT",
        "url": "DiagnosticReport/dba54705-0872-cde3-0a65-6a000b97f057"
      }
    },
    {
      "fullUrl": "urn:uuid:47029bdf-761e-e3be-d2f8-4da192856508",
      "resource": {
        "resourceType": "Observation",
        "id": "47029bdf-761e-e3be-d2f8-4da192856508",
        "meta": {
          "profile": [
            "http://hl7.org/fhir/us/core/StructureDefinition/us-core-observationresults"
          ],
          "source": [
            "ecr"
          ]
        },
        "identifier": [
          {
            "system": "urn:oid:2.16.840.1.113883",
            "value": "https://fhir-ehr.cerner.com/r4/da0b5d99-573c-4f5e-aaf6-8d39fa93d033/Observation/M-19270007196/_history/1"
          }
        ],
        "category": [
          {
            "coding": [
              {
                "system": "http://terminology.hl7.org/CodeSystem/observation-category",
                "code": "laboratory"
              }
            ]
          }
        ],
        "status": "final",
        "code": {
          "coding": [
            {
              "code": "5902-2",
              "system": "http://loinc.org"
            }
          ]
        },
        "effectiveDateTime": "2022-04-13T12:38:00Z",
        "valueQuantity": {
          "value": 10.6,
          "unit": "Seconds"
        },
        "interpretation": [
          {
            "coding": [
              {
                "code": "N",
                "display": "Normal",
                "system": "http://terminology.hl7.org/CodeSystem/v3-ObservationInterpretation"
              }
            ]
          }
        ],
        "subject": {
          "reference": "Patient/08aa51f0-4e02-4d29-8210-cf0dc558100b"
        }
      },
      "request": {
        "method": "PUT",
        "url": "Observation/47029bdf-761e-e3be-d2f8-4da192856508"
      }
    },
    {
      "fullUrl": "urn:uuid:20698d6a-e676-6ee3-e65b-8cdfedaa83fc",
      "resource": {
        "resourceType": "DiagnosticReport",
        "id": "20698d6a-e676-6ee3-e65b-8cdfedaa83fc",
        "identifier": [
          {
            "system": "urn:ietf:rfc:3986",
            "value": "urn:uuid:54ead98f-4365-417d-80b2-ba75211c28f0"
          }
        ],
        "status": "final",
        "code": {
          "coding": [
            {
              "code": "19123-9",
              "system": "http://loinc.org"
            }
          ]
        },
        "subject": {
          "reference": "Patient/08aa51f0-4e02-4d29-8210-cf0dc558100b"
        },
        "result": [
          {
            "reference": "Observation/2c7bda59-ab4c-5e9d-12c1-b0ffad71c907"
          }
        ],
        "meta": {
          "source": [
            "ecr"
          ]
        }
      },
      "request": {
        "method": "PUT",
        "url": "DiagnosticReport/20698d6a-e676-6ee3-e65b-8cdfedaa83fc"
      }
    },
    {
      "fullUrl": "urn:uuid:2c7bda59-ab4c-5e9d-12c1-b0ffad71c907",
      "resource": {
        "resourceType": "Observation",
        "id": "2c7bda59-ab4c-5e9d-12c1-b0ffad71c907",
        "meta": {
          "profile": [
            "http://hl7.org/fhir/us/core/StructureDefinition/us-core-observationresults"
          ],
          "source": [
            "ecr"
          ]
        },
        "identifier": [
          {
            "system": "urn:oid:2.16.840.1.113883",
            "value": "https://fhir-ehr.cerner.com/r4/da0b5d99-573c-4f5e-aaf6-8d39fa93d033/Observation/M-19270005427/_history/1"
          }
        ],
        "category": [
          {
            "coding": [
              {
                "system": "http://terminology.hl7.org/CodeSystem/observation-category",
                "code": "laboratory"
              }
            ]
          }
        ],
        "status": "final",
        "code": {
          "coding": [
            {
              "code": "19123-9",
              "system": "http://loinc.org"
            }
          ]
        },
        "effectiveDateTime": "2022-04-13T12:38:00Z",
        "valueQuantity": {
          "value": 1.9,
          "unit": "mg/dL"
        },
        "interpretation": [
          {
            "coding": [
              {
                "code": "N",
                "display": "Normal",
                "system": "http://terminology.hl7.org/CodeSystem/v3-ObservationInterpretation"
              }
            ]
          }
        ],
        "subject": {
          "reference": "Patient/08aa51f0-4e02-4d29-8210-cf0dc558100b"
        }
      },
      "request": {
        "method": "PUT",
        "url": "Observation/2c7bda59-ab4c-5e9d-12c1-b0ffad71c907"
      }
    },
    {
      "fullUrl": "urn:uuid:60c10b78-ee23-b8b4-8774-6f1018d38a84",
      "resource": {
        "resourceType": "DiagnosticReport",
        "id": "60c10b78-ee23-b8b4-8774-6f1018d38a84",
        "identifier": [
          {
            "system": "urn:ietf:rfc:3986",
            "value": "urn:uuid:bda78450-4c3e-4886-b4be-70de864f3f04"
          }
        ],
        "status": "final",
        "code": {
          "coding": [
            {
              "code": "2085-9",
              "system": "http://loinc.org"
            }
          ]
        },
        "subject": {
          "reference": "Patient/08aa51f0-4e02-4d29-8210-cf0dc558100b"
        },
        "result": [
          {
            "reference": "Observation/2cbccc67-66fb-1663-a89b-ebfc3d39c237"
          }
        ],
        "meta": {
          "source": [
            "ecr"
          ]
        }
      },
      "request": {
        "method": "PUT",
        "url": "DiagnosticReport/60c10b78-ee23-b8b4-8774-6f1018d38a84"
      }
    },
    {
      "fullUrl": "urn:uuid:2cbccc67-66fb-1663-a89b-ebfc3d39c237",
      "resource": {
        "resourceType": "Observation",
        "id": "2cbccc67-66fb-1663-a89b-ebfc3d39c237",
        "meta": {
          "profile": [
            "http://hl7.org/fhir/us/core/StructureDefinition/us-core-observationresults"
          ],
          "source": [
            "ecr"
          ]
        },
        "identifier": [
          {
            "system": "urn:oid:2.16.840.1.113883",
            "value": "https://fhir-ehr.cerner.com/r4/da0b5d99-573c-4f5e-aaf6-8d39fa93d033/Observation/M-19270371711/_history/1"
          }
        ],
        "category": [
          {
            "coding": [
              {
                "system": "http://terminology.hl7.org/CodeSystem/observation-category",
                "code": "laboratory"
              }
            ]
          }
        ],
        "status": "final",
        "code": {
          "coding": [
            {
              "code": "2085-9",
              "system": "http://loinc.org"
            }
          ]
        },
        "effectiveDateTime": "2022-04-13T12:38:00Z",
        "valueQuantity": {
          "value": 36,
          "unit": "mg/dL"
        },
        "interpretation": [
          {
            "coding": [
              {
                "code": "L",
                "display": "Low",
                "system": "http://terminology.hl7.org/CodeSystem/v3-ObservationInterpretation"
              }
            ]
          }
        ],
        "subject": {
          "reference": "Patient/08aa51f0-4e02-4d29-8210-cf0dc558100b"
        }
      },
      "request": {
        "method": "PUT",
        "url": "Observation/2cbccc67-66fb-1663-a89b-ebfc3d39c237"
      }
    },
    {
      "fullUrl": "urn:uuid:05a92137-9faf-3ec8-c583-2fba2ba1eba2",
      "resource": {
        "resourceType": "DiagnosticReport",
        "id": "05a92137-9faf-3ec8-c583-2fba2ba1eba2",
        "identifier": [
          {
            "system": "urn:ietf:rfc:3986",
            "value": "urn:uuid:f29635f2-a747-4eb5-97ce-85fae13d3fc1"
          }
        ],
        "status": "final",
        "code": {
          "coding": [
            {
              "code": "2093-3",
              "system": "http://loinc.org"
            }
          ]
        },
        "subject": {
          "reference": "Patient/08aa51f0-4e02-4d29-8210-cf0dc558100b"
        },
        "result": [
          {
            "reference": "Observation/c253daa5-d370-260d-3810-2e19522f729e"
          }
        ],
        "meta": {
          "source": [
            "ecr"
          ]
        }
      },
      "request": {
        "method": "PUT",
        "url": "DiagnosticReport/05a92137-9faf-3ec8-c583-2fba2ba1eba2"
      }
    },
    {
      "fullUrl": "urn:uuid:c253daa5-d370-260d-3810-2e19522f729e",
      "resource": {
        "resourceType": "Observation",
        "id": "c253daa5-d370-260d-3810-2e19522f729e",
        "meta": {
          "profile": [
            "http://hl7.org/fhir/us/core/StructureDefinition/us-core-observationresults"
          ],
          "source": [
            "ecr"
          ]
        },
        "identifier": [
          {
            "system": "urn:oid:2.16.840.1.113883",
            "value": "https://fhir-ehr.cerner.com/r4/da0b5d99-573c-4f5e-aaf6-8d39fa93d033/Observation/M-19270371703/_history/1"
          }
        ],
        "category": [
          {
            "coding": [
              {
                "system": "http://terminology.hl7.org/CodeSystem/observation-category",
                "code": "laboratory"
              }
            ]
          }
        ],
        "status": "final",
        "code": {
          "coding": [
            {
              "code": "2093-3",
              "system": "http://loinc.org"
            }
          ]
        },
        "effectiveDateTime": "2022-04-13T12:38:00Z",
        "valueQuantity": {
          "value": 129,
          "unit": "mg/dL"
        },
        "interpretation": [
          {
            "coding": [
              {
                "code": "N",
                "display": "Normal",
                "system": "http://terminology.hl7.org/CodeSystem/v3-ObservationInterpretation"
              }
            ]
          }
        ],
        "subject": {
          "reference": "Patient/08aa51f0-4e02-4d29-8210-cf0dc558100b"
        }
      },
      "request": {
        "method": "PUT",
        "url": "Observation/c253daa5-d370-260d-3810-2e19522f729e"
      }
    },
    {
      "fullUrl": "urn:uuid:f6fe3fc8-c6f0-d47a-bfcf-48c8c89005ea",
      "resource": {
        "resourceType": "DiagnosticReport",
        "id": "f6fe3fc8-c6f0-d47a-bfcf-48c8c89005ea",
        "identifier": [
          {
            "system": "urn:ietf:rfc:3986",
            "value": "urn:uuid:9bfa15b1-9e7c-44b2-8a6a-b2f7ef426cfa"
          }
        ],
        "status": "final",
        "code": {
          "coding": [
            {
              "code": "6301-6",
              "system": "http://loinc.org"
            }
          ]
        },
        "subject": {
          "reference": "Patient/08aa51f0-4e02-4d29-8210-cf0dc558100b"
        },
        "result": [
          {
            "reference": "Observation/623c8e0b-e20c-3570-523a-896bdac71423"
          }
        ],
        "meta": {
          "source": [
            "ecr"
          ]
        }
      },
      "request": {
        "method": "PUT",
        "url": "DiagnosticReport/f6fe3fc8-c6f0-d47a-bfcf-48c8c89005ea"
      }
    },
    {
      "fullUrl": "urn:uuid:623c8e0b-e20c-3570-523a-896bdac71423",
      "resource": {
        "resourceType": "Observation",
        "id": "623c8e0b-e20c-3570-523a-896bdac71423",
        "meta": {
          "profile": [
            "http://hl7.org/fhir/us/core/StructureDefinition/us-core-observationresults"
          ],
          "source": [
            "ecr"
          ]
        },
        "identifier": [
          {
            "system": "urn:oid:2.16.840.1.113883",
            "value": "https://fhir-ehr.cerner.com/r4/da0b5d99-573c-4f5e-aaf6-8d39fa93d033/Observation/M-19270007202/_history/1"
          }
        ],
        "category": [
          {
            "coding": [
              {
                "system": "http://terminology.hl7.org/CodeSystem/observation-category",
                "code": "laboratory"
              }
            ]
          }
        ],
        "status": "final",
        "code": {
          "coding": [
            {
              "code": "6301-6",
              "system": "http://loinc.org"
            }
          ]
        },
        "effectiveDateTime": "2022-04-13T12:38:00Z",
        "valueQuantity": {
          "value": 1.0,
          "unit": "null"
        },
        "interpretation": [
          {
            "coding": [
              {
                "code": "N",
                "display": "Normal",
                "system": "http://terminology.hl7.org/CodeSystem/v3-ObservationInterpretation"
              }
            ]
          }
        ],
        "subject": {
          "reference": "Patient/08aa51f0-4e02-4d29-8210-cf0dc558100b"
        }
      },
      "request": {
        "method": "PUT",
        "url": "Observation/623c8e0b-e20c-3570-523a-896bdac71423"
      }
    },
    {
      "fullUrl": "urn:uuid:fb325a83-6f77-5c31-e371-1d90bb6557d6",
      "resource": {
        "resourceType": "DiagnosticReport",
        "id": "fb325a83-6f77-5c31-e371-1d90bb6557d6",
        "identifier": [
          {
            "system": "urn:ietf:rfc:3986",
            "value": "urn:uuid:20ce4355-1072-4af0-939b-891d76603b8e"
          }
        ],
        "status": "final",
        "code": {
          "coding": [
            {
              "code": "35592-5",
              "system": "http://loinc.org"
            }
          ]
        },
        "subject": {
          "reference": "Patient/08aa51f0-4e02-4d29-8210-cf0dc558100b"
        },
        "result": [
          {
            "reference": "Observation/ab4abe54-9f7c-6fed-3ee7-eec961d64671"
          }
        ],
        "meta": {
          "source": [
            "ecr"
          ]
        }
      },
      "request": {
        "method": "PUT",
        "url": "DiagnosticReport/fb325a83-6f77-5c31-e371-1d90bb6557d6"
      }
    },
    {
      "fullUrl": "urn:uuid:ab4abe54-9f7c-6fed-3ee7-eec961d64671",
      "resource": {
        "resourceType": "Observation",
        "id": "ab4abe54-9f7c-6fed-3ee7-eec961d64671",
        "meta": {
          "profile": [
            "http://hl7.org/fhir/us/core/StructureDefinition/us-core-observationresults"
          ],
          "source": [
            "ecr"
          ]
        },
        "identifier": [
          {
            "system": "urn:oid:2.16.840.1.113883",
            "value": "https://fhir-ehr.cerner.com/r4/da0b5d99-573c-4f5e-aaf6-8d39fa93d033/Observation/M-19269566162/_history/1"
          }
        ],
        "category": [
          {
            "coding": [
              {
                "system": "http://terminology.hl7.org/CodeSystem/observation-category",
                "code": "laboratory"
              }
            ]
          }
        ],
        "status": "final",
        "code": {
          "coding": [
            {
              "code": "35592-5",
              "system": "http://loinc.org"
            }
          ]
        },
        "effectiveDateTime": "2022-04-13T10:34:02Z",
        "valueQuantity": {
          "value": 104.42,
          "unit": "mL/min"
        },
        "subject": {
          "reference": "Patient/08aa51f0-4e02-4d29-8210-cf0dc558100b"
        }
      },
      "request": {
        "method": "PUT",
        "url": "Observation/ab4abe54-9f7c-6fed-3ee7-eec961d64671"
      }
    },
    {
      "fullUrl": "urn:uuid:e82d3424-976c-1885-e6b5-1040935e73d6",
      "resource": {
        "resourceType": "DiagnosticReport",
        "id": "e82d3424-976c-1885-e6b5-1040935e73d6",
        "identifier": [
          {
            "system": "urn:ietf:rfc:3986",
            "value": "urn:uuid:84155d39-2bf9-4952-944e-6f0628ed0977"
          }
        ],
        "status": "final",
        "code": {
          "coding": [
            {
              "code": "50384-7",
              "system": "http://loinc.org"
            }
          ]
        },
        "subject": {
          "reference": "Patient/08aa51f0-4e02-4d29-8210-cf0dc558100b"
        },
        "result": [
          {
            "reference": "Observation/7712e9ca-e7d4-8671-f6b4-5392010af5ab"
          }
        ],
        "meta": {
          "source": [
            "ecr"
          ]
        }
      },
      "request": {
        "method": "PUT",
        "url": "DiagnosticReport/e82d3424-976c-1885-e6b5-1040935e73d6"
      }
    },
    {
      "fullUrl": "urn:uuid:7712e9ca-e7d4-8671-f6b4-5392010af5ab",
      "resource": {
        "resourceType": "Observation",
        "id": "7712e9ca-e7d4-8671-f6b4-5392010af5ab",
        "meta": {
          "profile": [
            "http://hl7.org/fhir/us/core/StructureDefinition/us-core-observationresults"
          ],
          "source": [
            "ecr"
          ]
        },
        "identifier": [
          {
            "system": "urn:oid:2.16.840.1.113883",
            "value": "https://fhir-ehr.cerner.com/r4/da0b5d99-573c-4f5e-aaf6-8d39fa93d033/Observation/M-19269550444/_history/1"
          }
        ],
        "category": [
          {
            "coding": [
              {
                "system": "http://terminology.hl7.org/CodeSystem/observation-category",
                "code": "laboratory"
              }
            ]
          }
        ],
        "status": "final",
        "code": {
          "coding": [
            {
              "code": "50384-7",
              "system": "http://loinc.org"
            }
          ]
        },
        "effectiveDateTime": "2022-04-13T09:46:00Z",
        "valueString": "Not Reported",
        "subject": {
          "reference": "Patient/08aa51f0-4e02-4d29-8210-cf0dc558100b"
        }
      },
      "request": {
        "method": "PUT",
        "url": "Observation/7712e9ca-e7d4-8671-f6b4-5392010af5ab"
      }
    },
    {
      "fullUrl": "urn:uuid:cf5a52fb-aa80-f332-2805-b03596d4e270",
      "resource": {
        "resourceType": "DiagnosticReport",
        "id": "cf5a52fb-aa80-f332-2805-b03596d4e270",
        "identifier": [
          {
            "system": "urn:ietf:rfc:3986",
            "value": "urn:uuid:cf5421d8-7ccb-47ec-8a64-88ce4db4ce7a"
          }
        ],
        "status": "final",
        "code": {
          "coding": [
            {
              "code": "18182-6",
              "system": "http://loinc.org"
            }
          ]
        },
        "subject": {
          "reference": "Patient/08aa51f0-4e02-4d29-8210-cf0dc558100b"
        },
        "result": [
          {
            "reference": "Observation/1e3c8378-32d3-27cc-7d39-094fcbf60627"
          }
        ],
        "meta": {
          "source": [
            "ecr"
          ]
        }
      },
      "request": {
        "method": "PUT",
        "url": "DiagnosticReport/cf5a52fb-aa80-f332-2805-b03596d4e270"
      }
    },
    {
      "fullUrl": "urn:uuid:1e3c8378-32d3-27cc-7d39-094fcbf60627",
      "resource": {
        "resourceType": "Observation",
        "id": "1e3c8378-32d3-27cc-7d39-094fcbf60627",
        "meta": {
          "profile": [
            "http://hl7.org/fhir/us/core/StructureDefinition/us-core-observationresults"
          ],
          "source": [
            "ecr"
          ]
        },
        "identifier": [
          {
            "system": "urn:oid:2.16.840.1.113883",
            "value": "https://fhir-ehr.cerner.com/r4/da0b5d99-573c-4f5e-aaf6-8d39fa93d033/Observation/M-19269550301/_history/1"
          }
        ],
        "category": [
          {
            "coding": [
              {
                "system": "http://terminology.hl7.org/CodeSystem/observation-category",
                "code": "laboratory"
              }
            ]
          }
        ],
        "status": "final",
        "code": {
          "coding": [
            {
              "code": "18182-6",
              "system": "http://loinc.org"
            }
          ]
        },
        "effectiveDateTime": "2022-04-13T09:46:00Z",
        "valueQuantity": {
          "value": 277,
          "unit": "mOsmol/kg"
        },
        "interpretation": [
          {
            "coding": [
              {
                "code": "N",
                "display": "Normal",
                "system": "http://terminology.hl7.org/CodeSystem/v3-ObservationInterpretation"
              }
            ]
          }
        ],
        "subject": {
          "reference": "Patient/08aa51f0-4e02-4d29-8210-cf0dc558100b"
        }
      },
      "request": {
        "method": "PUT",
        "url": "Observation/1e3c8378-32d3-27cc-7d39-094fcbf60627"
      }
    },
    {
      "fullUrl": "urn:uuid:ea729d88-2a0f-28c9-1a6e-4f4522b82682",
      "resource": {
        "resourceType": "DiagnosticReport",
        "id": "ea729d88-2a0f-28c9-1a6e-4f4522b82682",
        "identifier": [
          {
            "system": "urn:ietf:rfc:3986",
            "value": "urn:uuid:564272a2-7e1c-4079-9f41-97d71caa3251"
          }
        ],
        "status": "final",
        "code": {
          "coding": [
            {
              "code": "1759-0",
              "system": "http://loinc.org"
            }
          ]
        },
        "subject": {
          "reference": "Patient/08aa51f0-4e02-4d29-8210-cf0dc558100b"
        },
        "result": [
          {
            "reference": "Observation/371db75c-a45f-4453-1420-6f36c3786b85"
          }
        ],
        "meta": {
          "source": [
            "ecr"
          ]
        }
      },
      "request": {
        "method": "PUT",
        "url": "DiagnosticReport/ea729d88-2a0f-28c9-1a6e-4f4522b82682"
      }
    },
    {
      "fullUrl": "urn:uuid:371db75c-a45f-4453-1420-6f36c3786b85",
      "resource": {
        "resourceType": "Observation",
        "id": "371db75c-a45f-4453-1420-6f36c3786b85",
        "meta": {
          "profile": [
            "http://hl7.org/fhir/us/core/StructureDefinition/us-core-observationresults"
          ],
          "source": [
            "ecr"
          ]
        },
        "identifier": [
          {
            "system": "urn:oid:2.16.840.1.113883",
            "value": "https://fhir-ehr.cerner.com/r4/da0b5d99-573c-4f5e-aaf6-8d39fa93d033/Observation/M-19269550303/_history/1"
          }
        ],
        "category": [
          {
            "coding": [
              {
                "system": "http://terminology.hl7.org/CodeSystem/observation-category",
                "code": "laboratory"
              }
            ]
          }
        ],
        "status": "final",
        "code": {
          "coding": [
            {
              "code": "1759-0",
              "system": "http://loinc.org"
            }
          ]
        },
        "effectiveDateTime": "2022-04-13T09:46:00Z",
        "valueQuantity": {
          "value": 0.9,
          "unit": "null"
        },
        "interpretation": [
          {
            "coding": [
              {
                "code": "N",
                "display": "Normal",
                "system": "http://terminology.hl7.org/CodeSystem/v3-ObservationInterpretation"
              }
            ]
          }
        ],
        "subject": {
          "reference": "Patient/08aa51f0-4e02-4d29-8210-cf0dc558100b"
        }
      },
      "request": {
        "method": "PUT",
        "url": "Observation/371db75c-a45f-4453-1420-6f36c3786b85"
      }
    },
    {
      "fullUrl": "urn:uuid:733cf389-9277-b4d0-37c2-fb8fec1403b1",
      "resource": {
        "resourceType": "DiagnosticReport",
        "id": "733cf389-9277-b4d0-37c2-fb8fec1403b1",
        "identifier": [
          {
            "system": "urn:ietf:rfc:3986",
            "value": "urn:uuid:c641bce7-8b88-4ec8-ab6e-51946b66dca0"
          }
        ],
        "status": "final",
        "code": {
          "coding": [
            {
              "code": "48642-3",
              "system": "http://loinc.org"
            }
          ]
        },
        "subject": {
          "reference": "Patient/08aa51f0-4e02-4d29-8210-cf0dc558100b"
        },
        "result": [
          {
            "reference": "Observation/4e40e55f-1eaa-5715-368f-3b6aa18c8584"
          }
        ],
        "meta": {
          "source": [
            "ecr"
          ]
        }
      },
      "request": {
        "method": "PUT",
        "url": "DiagnosticReport/733cf389-9277-b4d0-37c2-fb8fec1403b1"
      }
    },
    {
      "fullUrl": "urn:uuid:4e40e55f-1eaa-5715-368f-3b6aa18c8584",
      "resource": {
        "resourceType": "Observation",
        "id": "4e40e55f-1eaa-5715-368f-3b6aa18c8584",
        "meta": {
          "profile": [
            "http://hl7.org/fhir/us/core/StructureDefinition/us-core-observationresults"
          ],
          "source": [
            "ecr"
          ]
        },
        "identifier": [
          {
            "system": "urn:oid:2.16.840.1.113883",
            "value": "https://fhir-ehr.cerner.com/r4/da0b5d99-573c-4f5e-aaf6-8d39fa93d033/Observation/M-19269550336/_history/1"
          }
        ],
        "category": [
          {
            "coding": [
              {
                "system": "http://terminology.hl7.org/CodeSystem/observation-category",
                "code": "laboratory"
              }
            ]
          }
        ],
        "status": "final",
        "code": {
          "coding": [
            {
              "code": "48642-3",
              "system": "http://loinc.org"
            }
          ]
        },
        "effectiveDateTime": "2022-04-13T09:46:00Z",
        "valueQuantity": {
          "value": 88,
          "unit": "mL/min/1.73m2"
        },
        "interpretation": [
          {
            "coding": [
              {
                "code": "N",
                "display": "Normal",
                "system": "http://terminology.hl7.org/CodeSystem/v3-ObservationInterpretation"
              }
            ]
          }
        ],
        "subject": {
          "reference": "Patient/08aa51f0-4e02-4d29-8210-cf0dc558100b"
        }
      },
      "request": {
        "method": "PUT",
        "url": "Observation/4e40e55f-1eaa-5715-368f-3b6aa18c8584"
      }
    },
    {
      "fullUrl": "urn:uuid:64aad475-5031-19dc-516d-954fa4fd32a4",
      "resource": {
        "resourceType": "DiagnosticReport",
        "id": "64aad475-5031-19dc-516d-954fa4fd32a4",
        "identifier": [
          {
            "system": "urn:ietf:rfc:3986",
            "value": "urn:uuid:cc0eb862-b639-42fc-9024-13483749fcc8"
          }
        ],
        "status": "final",
        "code": {
          "coding": [
            {
              "code": "48643-1",
              "system": "http://loinc.org"
            }
          ]
        },
        "subject": {
          "reference": "Patient/08aa51f0-4e02-4d29-8210-cf0dc558100b"
        },
        "result": [
          {
            "reference": "Observation/b1330cad-055e-f461-2ee3-2ddd16e398f6"
          }
        ],
        "meta": {
          "source": [
            "ecr"
          ]
        }
      },
      "request": {
        "method": "PUT",
        "url": "DiagnosticReport/64aad475-5031-19dc-516d-954fa4fd32a4"
      }
    },
    {
      "fullUrl": "urn:uuid:b1330cad-055e-f461-2ee3-2ddd16e398f6",
      "resource": {
        "resourceType": "Observation",
        "id": "b1330cad-055e-f461-2ee3-2ddd16e398f6",
        "meta": {
          "profile": [
            "http://hl7.org/fhir/us/core/StructureDefinition/us-core-observationresults"
          ],
          "source": [
            "ecr"
          ]
        },
        "identifier": [
          {
            "system": "urn:oid:2.16.840.1.113883",
            "value": "https://fhir-ehr.cerner.com/r4/da0b5d99-573c-4f5e-aaf6-8d39fa93d033/Observation/M-19269550356/_history/1"
          }
        ],
        "category": [
          {
            "coding": [
              {
                "system": "http://terminology.hl7.org/CodeSystem/observation-category",
                "code": "laboratory"
              }
            ]
          }
        ],
        "status": "final",
        "code": {
          "coding": [
            {
              "code": "48643-1",
              "system": "http://loinc.org"
            }
          ]
        },
        "effectiveDateTime": "2022-04-13T09:46:00Z",
        "valueQuantity": {
          "value": 102,
          "unit": "mL/min/1.73m2"
        },
        "interpretation": [
          {
            "coding": [
              {
                "code": "N",
                "display": "Normal",
                "system": "http://terminology.hl7.org/CodeSystem/v3-ObservationInterpretation"
              }
            ]
          }
        ],
        "subject": {
          "reference": "Patient/08aa51f0-4e02-4d29-8210-cf0dc558100b"
        }
      },
      "request": {
        "method": "PUT",
        "url": "Observation/b1330cad-055e-f461-2ee3-2ddd16e398f6"
      }
    },
    {
      "fullUrl": "urn:uuid:ccc9b063-aa64-15cf-9e56-d934a37ed672",
      "resource": {
        "resourceType": "DiagnosticReport",
        "id": "ccc9b063-aa64-15cf-9e56-d934a37ed672",
        "identifier": [
          {
            "system": "urn:ietf:rfc:3986",
            "value": "urn:uuid:b3cd99e3-e0fc-4994-9ef5-cd174ec227f9"
          }
        ],
        "status": "final",
        "code": {
          "coding": [
            {
              "code": "30392-5",
              "system": "http://loinc.org"
            }
          ]
        },
        "subject": {
          "reference": "Patient/08aa51f0-4e02-4d29-8210-cf0dc558100b"
        },
        "result": [
          {
            "reference": "Observation/816fa257-9bec-c5d8-4b4f-0efcded5be57"
          }
        ],
        "meta": {
          "source": [
            "ecr"
          ]
        }
      },
      "request": {
        "method": "PUT",
        "url": "DiagnosticReport/ccc9b063-aa64-15cf-9e56-d934a37ed672"
      }
    },
    {
      "fullUrl": "urn:uuid:816fa257-9bec-c5d8-4b4f-0efcded5be57",
      "resource": {
        "resourceType": "Observation",
        "id": "816fa257-9bec-c5d8-4b4f-0efcded5be57",
        "meta": {
          "profile": [
            "http://hl7.org/fhir/us/core/StructureDefinition/us-core-observationresults"
          ],
          "source": [
            "ecr"
          ]
        },
        "identifier": [
          {
            "system": "urn:oid:2.16.840.1.113883",
            "value": "https://fhir-ehr.cerner.com/r4/da0b5d99-573c-4f5e-aaf6-8d39fa93d033/Observation/M-19269505788/_history/1"
          }
        ],
        "category": [
          {
            "coding": [
              {
                "system": "http://terminology.hl7.org/CodeSystem/observation-category",
                "code": "laboratory"
              }
            ]
          }
        ],
        "status": "final",
        "code": {
          "coding": [
            {
              "code": "30392-5",
              "system": "http://loinc.org"
            }
          ]
        },
        "effectiveDateTime": "2022-04-13T09:46:00Z",
        "valueQuantity": {
          "value": 0.02,
          "unit": "x10e3/mcL"
        },
        "interpretation": [
          {
            "coding": [
              {
                "code": "H",
                "display": "High",
                "system": "http://terminology.hl7.org/CodeSystem/v3-ObservationInterpretation"
              }
            ]
          }
        ],
        "subject": {
          "reference": "Patient/08aa51f0-4e02-4d29-8210-cf0dc558100b"
        }
      },
      "request": {
        "method": "PUT",
        "url": "Observation/816fa257-9bec-c5d8-4b4f-0efcded5be57"
      }
    },
    {
      "fullUrl": "urn:uuid:23b3de05-c6d3-f2cc-b6ed-fb49f4088151",
      "resource": {
        "resourceType": "DiagnosticReport",
        "id": "23b3de05-c6d3-f2cc-b6ed-fb49f4088151",
        "identifier": [
          {
            "system": "urn:ietf:rfc:3986",
            "value": "urn:uuid:bdeb95d8-f0cc-478d-9489-57c7cffedb41"
          }
        ],
        "status": "final",
        "code": {
          "coding": [
            {
              "code": "2951-2",
              "system": "http://loinc.org"
            }
          ]
        },
        "subject": {
          "reference": "Patient/08aa51f0-4e02-4d29-8210-cf0dc558100b"
        },
        "result": [
          {
            "reference": "Observation/598c99dc-d71b-2e02-5b0a-6e345fb80f95"
          }
        ],
        "meta": {
          "source": [
            "ecr"
          ]
        }
      },
      "request": {
        "method": "PUT",
        "url": "DiagnosticReport/23b3de05-c6d3-f2cc-b6ed-fb49f4088151"
      }
    },
    {
      "fullUrl": "urn:uuid:598c99dc-d71b-2e02-5b0a-6e345fb80f95",
      "resource": {
        "resourceType": "Observation",
        "id": "598c99dc-d71b-2e02-5b0a-6e345fb80f95",
        "meta": {
          "profile": [
            "http://hl7.org/fhir/us/core/StructureDefinition/us-core-observationresults"
          ],
          "source": [
            "ecr"
          ]
        },
        "identifier": [
          {
            "system": "urn:oid:2.16.840.1.113883",
            "value": "https://fhir-ehr.cerner.com/r4/da0b5d99-573c-4f5e-aaf6-8d39fa93d033/Observation/M-19269550255/_history/1"
          }
        ],
        "category": [
          {
            "coding": [
              {
                "system": "http://terminology.hl7.org/CodeSystem/observation-category",
                "code": "laboratory"
              }
            ]
          }
        ],
        "status": "final",
        "code": {
          "coding": [
            {
              "code": "2951-2",
              "system": "http://loinc.org"
            }
          ]
        },
        "effectiveDateTime": "2022-04-13T09:46:00Z",
        "valueQuantity": {
          "value": 137,
          "unit": "mmol/L"
        },
        "interpretation": [
          {
            "coding": [
              {
                "code": "N",
                "display": "Normal",
                "system": "http://terminology.hl7.org/CodeSystem/v3-ObservationInterpretation"
              }
            ]
          }
        ],
        "subject": {
          "reference": "Patient/08aa51f0-4e02-4d29-8210-cf0dc558100b"
        }
      },
      "request": {
        "method": "PUT",
        "url": "Observation/598c99dc-d71b-2e02-5b0a-6e345fb80f95"
      }
    },
    {
      "fullUrl": "urn:uuid:7260e385-a751-017c-5957-edbbc763d6a2",
      "resource": {
        "resourceType": "DiagnosticReport",
        "id": "7260e385-a751-017c-5957-edbbc763d6a2",
        "identifier": [
          {
            "system": "urn:ietf:rfc:3986",
            "value": "urn:uuid:3c93dce9-5a1a-4bc4-90a7-b92d2cc97dae"
          }
        ],
        "status": "final",
        "code": {
          "coding": [
            {
              "code": "2823-3",
              "system": "http://loinc.org"
            }
          ]
        },
        "subject": {
          "reference": "Patient/08aa51f0-4e02-4d29-8210-cf0dc558100b"
        },
        "result": [
          {
            "reference": "Observation/4f75b6a9-44be-aee0-e568-f31af913774b"
          }
        ],
        "meta": {
          "source": [
            "ecr"
          ]
        }
      },
      "request": {
        "method": "PUT",
        "url": "DiagnosticReport/7260e385-a751-017c-5957-edbbc763d6a2"
      }
    },
    {
      "fullUrl": "urn:uuid:4f75b6a9-44be-aee0-e568-f31af913774b",
      "resource": {
        "resourceType": "Observation",
        "id": "4f75b6a9-44be-aee0-e568-f31af913774b",
        "meta": {
          "profile": [
            "http://hl7.org/fhir/us/core/StructureDefinition/us-core-observationresults"
          ],
          "source": [
            "ecr"
          ]
        },
        "identifier": [
          {
            "system": "urn:oid:2.16.840.1.113883",
            "value": "https://fhir-ehr.cerner.com/r4/da0b5d99-573c-4f5e-aaf6-8d39fa93d033/Observation/M-19269550259/_history/1"
          }
        ],
        "category": [
          {
            "coding": [
              {
                "system": "http://terminology.hl7.org/CodeSystem/observation-category",
                "code": "laboratory"
              }
            ]
          }
        ],
        "status": "final",
        "code": {
          "coding": [
            {
              "code": "2823-3",
              "system": "http://loinc.org"
            }
          ]
        },
        "effectiveDateTime": "2022-04-13T09:46:00Z",
        "valueQuantity": {
          "value": 4.1,
          "unit": "mmol/L"
        },
        "interpretation": [
          {
            "coding": [
              {
                "code": "N",
                "display": "Normal",
                "system": "http://terminology.hl7.org/CodeSystem/v3-ObservationInterpretation"
              }
            ]
          }
        ],
        "subject": {
          "reference": "Patient/08aa51f0-4e02-4d29-8210-cf0dc558100b"
        }
      },
      "request": {
        "method": "PUT",
        "url": "Observation/4f75b6a9-44be-aee0-e568-f31af913774b"
      }
    },
    {
      "fullUrl": "urn:uuid:f027282a-42cd-3981-27fc-0ae2c3d722d5",
      "resource": {
        "resourceType": "DiagnosticReport",
        "id": "f027282a-42cd-3981-27fc-0ae2c3d722d5",
        "identifier": [
          {
            "system": "urn:ietf:rfc:3986",
            "value": "urn:uuid:372ad518-205b-464e-8ce7-72e5c2c048cd"
          }
        ],
        "status": "final",
        "code": {
          "coding": [
            {
              "code": "704-7",
              "system": "http://loinc.org"
            }
          ]
        },
        "subject": {
          "reference": "Patient/08aa51f0-4e02-4d29-8210-cf0dc558100b"
        },
        "result": [
          {
            "reference": "Observation/6db75d37-db3c-d33a-fb37-30a8587c47b8"
          }
        ],
        "meta": {
          "source": [
            "ecr"
          ]
        }
      },
      "request": {
        "method": "PUT",
        "url": "DiagnosticReport/f027282a-42cd-3981-27fc-0ae2c3d722d5"
      }
    },
    {
      "fullUrl": "urn:uuid:6db75d37-db3c-d33a-fb37-30a8587c47b8",
      "resource": {
        "resourceType": "Observation",
        "id": "6db75d37-db3c-d33a-fb37-30a8587c47b8",
        "meta": {
          "profile": [
            "http://hl7.org/fhir/us/core/StructureDefinition/us-core-observationresults"
          ],
          "source": [
            "ecr"
          ]
        },
        "identifier": [
          {
            "system": "urn:oid:2.16.840.1.113883",
            "value": "https://fhir-ehr.cerner.com/r4/da0b5d99-573c-4f5e-aaf6-8d39fa93d033/Observation/M-19269602326/_history/1"
          }
        ],
        "category": [
          {
            "coding": [
              {
                "system": "http://terminology.hl7.org/CodeSystem/observation-category",
                "code": "laboratory"
              }
            ]
          }
        ],
        "status": "final",
        "code": {
          "coding": [
            {
              "code": "704-7",
              "system": "http://loinc.org"
            }
          ]
        },
        "effectiveDateTime": "2022-04-13T09:46:00Z",
        "valueQuantity": {
          "value": 0.05,
          "unit": "x10e3/mcL"
        },
        "interpretation": [
          {
            "coding": [
              {
                "code": "N",
                "display": "Normal",
                "system": "http://terminology.hl7.org/CodeSystem/v3-ObservationInterpretation"
              }
            ]
          }
        ],
        "subject": {
          "reference": "Patient/08aa51f0-4e02-4d29-8210-cf0dc558100b"
        }
      },
      "request": {
        "method": "PUT",
        "url": "Observation/6db75d37-db3c-d33a-fb37-30a8587c47b8"
      }
    },
    {
      "fullUrl": "urn:uuid:9849fba2-c083-68bb-0b02-f626fb6c97ee",
      "resource": {
        "resourceType": "DiagnosticReport",
        "id": "9849fba2-c083-68bb-0b02-f626fb6c97ee",
        "identifier": [
          {
            "system": "urn:ietf:rfc:3986",
            "value": "urn:uuid:ee7ad5cd-d663-4e02-b2a7-6de7bdfd4545"
          }
        ],
        "status": "final",
        "code": {
          "coding": [
            {
              "code": "1751-7",
              "system": "http://loinc.org"
            }
          ]
        },
        "subject": {
          "reference": "Patient/08aa51f0-4e02-4d29-8210-cf0dc558100b"
        },
        "result": [
          {
            "reference": "Observation/a33c6147-2e3e-bfba-5f0a-4ca06784bdbf"
          }
        ],
        "meta": {
          "source": [
            "ecr"
          ]
        }
      },
      "request": {
        "method": "PUT",
        "url": "DiagnosticReport/9849fba2-c083-68bb-0b02-f626fb6c97ee"
      }
    },
    {
      "fullUrl": "urn:uuid:a33c6147-2e3e-bfba-5f0a-4ca06784bdbf",
      "resource": {
        "resourceType": "Observation",
        "id": "a33c6147-2e3e-bfba-5f0a-4ca06784bdbf",
        "meta": {
          "profile": [
            "http://hl7.org/fhir/us/core/StructureDefinition/us-core-observationresults"
          ],
          "source": [
            "ecr"
          ]
        },
        "identifier": [
          {
            "system": "urn:oid:2.16.840.1.113883",
            "value": "https://fhir-ehr.cerner.com/r4/da0b5d99-573c-4f5e-aaf6-8d39fa93d033/Observation/M-19269550287/_history/1"
          }
        ],
        "category": [
          {
            "coding": [
              {
                "system": "http://terminology.hl7.org/CodeSystem/observation-category",
                "code": "laboratory"
              }
            ]
          }
        ],
        "status": "final",
        "code": {
          "coding": [
            {
              "code": "1751-7",
              "system": "http://loinc.org"
            }
          ]
        },
        "effectiveDateTime": "2022-04-13T09:46:00Z",
        "valueQuantity": {
          "value": 3.6,
          "unit": "gm/dL"
        },
        "interpretation": [
          {
            "coding": [
              {
                "code": "N",
                "display": "Normal",
                "system": "http://terminology.hl7.org/CodeSystem/v3-ObservationInterpretation"
              }
            ]
          }
        ],
        "subject": {
          "reference": "Patient/08aa51f0-4e02-4d29-8210-cf0dc558100b"
        }
      },
      "request": {
        "method": "PUT",
        "url": "Observation/a33c6147-2e3e-bfba-5f0a-4ca06784bdbf"
      }
    },
    {
      "fullUrl": "urn:uuid:1557dc07-03aa-62f9-13d2-a676d3b9fec9",
      "resource": {
        "resourceType": "DiagnosticReport",
        "id": "1557dc07-03aa-62f9-13d2-a676d3b9fec9",
        "identifier": [
          {
            "system": "urn:ietf:rfc:3986",
            "value": "urn:uuid:5829ed73-563e-4a65-a0b8-b86de17dbbcb"
          }
        ],
        "status": "final",
        "code": {
          "coding": [
            {
              "code": "742-7",
              "system": "http://loinc.org"
            }
          ]
        },
        "subject": {
          "reference": "Patient/08aa51f0-4e02-4d29-8210-cf0dc558100b"
        },
        "result": [
          {
            "reference": "Observation/d42ee119-4ec1-2040-8937-a0d3219ee1b8"
          }
        ],
        "meta": {
          "source": [
            "ecr"
          ]
        }
      },
      "request": {
        "method": "PUT",
        "url": "DiagnosticReport/1557dc07-03aa-62f9-13d2-a676d3b9fec9"
      }
    },
    {
      "fullUrl": "urn:uuid:d42ee119-4ec1-2040-8937-a0d3219ee1b8",
      "resource": {
        "resourceType": "Observation",
        "id": "d42ee119-4ec1-2040-8937-a0d3219ee1b8",
        "meta": {
          "profile": [
            "http://hl7.org/fhir/us/core/StructureDefinition/us-core-observationresults"
          ],
          "source": [
            "ecr"
          ]
        },
        "identifier": [
          {
            "system": "urn:oid:2.16.840.1.113883",
            "value": "https://fhir-ehr.cerner.com/r4/da0b5d99-573c-4f5e-aaf6-8d39fa93d033/Observation/M-19269602322/_history/1"
          }
        ],
        "category": [
          {
            "coding": [
              {
                "system": "http://terminology.hl7.org/CodeSystem/observation-category",
                "code": "laboratory"
              }
            ]
          }
        ],
        "status": "final",
        "code": {
          "coding": [
            {
              "code": "742-7",
              "system": "http://loinc.org"
            }
          ]
        },
        "effectiveDateTime": "2022-04-13T09:46:00Z",
        "valueQuantity": {
          "value": 1.15,
          "unit": "x10e3/mcL"
        },
        "interpretation": [
          {
            "coding": [
              {
                "code": "H",
                "display": "High",
                "system": "http://terminology.hl7.org/CodeSystem/v3-ObservationInterpretation"
              }
            ]
          }
        ],
        "subject": {
          "reference": "Patient/08aa51f0-4e02-4d29-8210-cf0dc558100b"
        }
      },
      "request": {
        "method": "PUT",
        "url": "Observation/d42ee119-4ec1-2040-8937-a0d3219ee1b8"
      }
    },
    {
      "fullUrl": "urn:uuid:e7b6652e-72a4-ce81-5ee8-ec8ab52a5284",
      "resource": {
        "resourceType": "DiagnosticReport",
        "id": "e7b6652e-72a4-ce81-5ee8-ec8ab52a5284",
        "identifier": [
          {
            "system": "urn:ietf:rfc:3986",
            "value": "urn:uuid:35f980c6-181f-4771-9493-3ca516ada46b"
          }
        ],
        "status": "final",
        "code": {
          "coding": [
            {
              "code": "751-8",
              "system": "http://loinc.org"
            }
          ]
        },
        "subject": {
          "reference": "Patient/08aa51f0-4e02-4d29-8210-cf0dc558100b"
        },
        "result": [
          {
            "reference": "Observation/94b7b462-ce01-20cb-0f9c-fa12a3525225"
          }
        ],
        "meta": {
          "source": [
            "ecr"
          ]
        }
      },
      "request": {
        "method": "PUT",
        "url": "DiagnosticReport/e7b6652e-72a4-ce81-5ee8-ec8ab52a5284"
      }
    },
    {
      "fullUrl": "urn:uuid:94b7b462-ce01-20cb-0f9c-fa12a3525225",
      "resource": {
        "resourceType": "Observation",
        "id": "94b7b462-ce01-20cb-0f9c-fa12a3525225",
        "meta": {
          "profile": [
            "http://hl7.org/fhir/us/core/StructureDefinition/us-core-observationresults"
          ],
          "source": [
            "ecr"
          ]
        },
        "identifier": [
          {
            "system": "urn:oid:2.16.840.1.113883",
            "value": "https://fhir-ehr.cerner.com/r4/da0b5d99-573c-4f5e-aaf6-8d39fa93d033/Observation/M-19269602318/_history/1"
          }
        ],
        "category": [
          {
            "coding": [
              {
                "system": "http://terminology.hl7.org/CodeSystem/observation-category",
                "code": "laboratory"
              }
            ]
          }
        ],
        "status": "final",
        "code": {
          "coding": [
            {
              "code": "751-8",
              "system": "http://loinc.org"
            }
          ]
        },
        "effectiveDateTime": "2022-04-13T09:46:00Z",
        "valueQuantity": {
          "value": 7.67,
          "unit": "x10e3/mcL"
        },
        "interpretation": [
          {
            "coding": [
              {
                "code": "N",
                "display": "Normal",
                "system": "http://terminology.hl7.org/CodeSystem/v3-ObservationInterpretation"
              }
            ]
          }
        ],
        "subject": {
          "reference": "Patient/08aa51f0-4e02-4d29-8210-cf0dc558100b"
        }
      },
      "request": {
        "method": "PUT",
        "url": "Observation/94b7b462-ce01-20cb-0f9c-fa12a3525225"
      }
    },
    {
      "fullUrl": "urn:uuid:fdc975aa-6a47-4387-542a-67a249bf06ea",
      "resource": {
        "resourceType": "DiagnosticReport",
        "id": "fdc975aa-6a47-4387-542a-67a249bf06ea",
        "identifier": [
          {
            "system": "urn:ietf:rfc:3986",
            "value": "urn:uuid:e3a89925-5728-4760-b83e-ed088479c95f"
          }
        ],
        "status": "final",
        "code": {
          "coding": [
            {
              "code": "706-2",
              "system": "http://loinc.org"
            }
          ]
        },
        "subject": {
          "reference": "Patient/08aa51f0-4e02-4d29-8210-cf0dc558100b"
        },
        "result": [
          {
            "reference": "Observation/25265a82-038e-f103-afa2-80f8fafdbd08"
          }
        ],
        "meta": {
          "source": [
            "ecr"
          ]
        }
      },
      "request": {
        "method": "PUT",
        "url": "DiagnosticReport/fdc975aa-6a47-4387-542a-67a249bf06ea"
      }
    },
    {
      "fullUrl": "urn:uuid:25265a82-038e-f103-afa2-80f8fafdbd08",
      "resource": {
        "resourceType": "Observation",
        "id": "25265a82-038e-f103-afa2-80f8fafdbd08",
        "meta": {
          "profile": [
            "http://hl7.org/fhir/us/core/StructureDefinition/us-core-observationresults"
          ],
          "source": [
            "ecr"
          ]
        },
        "identifier": [
          {
            "system": "urn:oid:2.16.840.1.113883",
            "value": "https://fhir-ehr.cerner.com/r4/da0b5d99-573c-4f5e-aaf6-8d39fa93d033/Observation/M-19269602316/_history/1"
          }
        ],
        "category": [
          {
            "coding": [
              {
                "system": "http://terminology.hl7.org/CodeSystem/observation-category",
                "code": "laboratory"
              }
            ]
          }
        ],
        "status": "final",
        "code": {
          "coding": [
            {
              "code": "706-2",
              "system": "http://loinc.org"
            }
          ]
        },
        "effectiveDateTime": "2022-04-13T09:46:00Z",
        "valueQuantity": {
          "value": 0.4,
          "unit": "%"
        },
        "subject": {
          "reference": "Patient/08aa51f0-4e02-4d29-8210-cf0dc558100b"
        }
      },
      "request": {
        "method": "PUT",
        "url": "Observation/25265a82-038e-f103-afa2-80f8fafdbd08"
      }
    },
    {
      "fullUrl": "urn:uuid:b5e7eb79-cf41-5588-acd8-f859438e4eb6",
      "resource": {
        "resourceType": "DiagnosticReport",
        "id": "b5e7eb79-cf41-5588-acd8-f859438e4eb6",
        "identifier": [
          {
            "system": "urn:ietf:rfc:3986",
            "value": "urn:uuid:3f61d723-dea2-4656-8b32-0981f3686886"
          }
        ],
        "status": "final",
        "code": {
          "coding": [
            {
              "code": "713-8",
              "system": "http://loinc.org"
            }
          ]
        },
        "subject": {
          "reference": "Patient/08aa51f0-4e02-4d29-8210-cf0dc558100b"
        },
        "result": [
          {
            "reference": "Observation/c2336f02-0f03-daef-a9c0-552b44f64963"
          }
        ],
        "meta": {
          "source": [
            "ecr"
          ]
        }
      },
      "request": {
        "method": "PUT",
        "url": "DiagnosticReport/b5e7eb79-cf41-5588-acd8-f859438e4eb6"
      }
    },
    {
      "fullUrl": "urn:uuid:c2336f02-0f03-daef-a9c0-552b44f64963",
      "resource": {
        "resourceType": "Observation",
        "id": "c2336f02-0f03-daef-a9c0-552b44f64963",
        "meta": {
          "profile": [
            "http://hl7.org/fhir/us/core/StructureDefinition/us-core-observationresults"
          ],
          "source": [
            "ecr"
          ]
        },
        "identifier": [
          {
            "system": "urn:oid:2.16.840.1.113883",
            "value": "https://fhir-ehr.cerner.com/r4/da0b5d99-573c-4f5e-aaf6-8d39fa93d033/Observation/M-19269602314/_history/1"
          }
        ],
        "category": [
          {
            "coding": [
              {
                "system": "http://terminology.hl7.org/CodeSystem/observation-category",
                "code": "laboratory"
              }
            ]
          }
        ],
        "status": "final",
        "code": {
          "coding": [
            {
              "code": "713-8",
              "system": "http://loinc.org"
            }
          ]
        },
        "effectiveDateTime": "2022-04-13T09:46:00Z",
        "valueQuantity": {
          "value": 0.8,
          "unit": "%"
        },
        "subject": {
          "reference": "Patient/08aa51f0-4e02-4d29-8210-cf0dc558100b"
        }
      },
      "request": {
        "method": "PUT",
        "url": "Observation/c2336f02-0f03-daef-a9c0-552b44f64963"
      }
    },
    {
      "fullUrl": "urn:uuid:d823d57d-450c-2c0f-69c8-2fb002b8d98d",
      "resource": {
        "resourceType": "DiagnosticReport",
        "id": "d823d57d-450c-2c0f-69c8-2fb002b8d98d",
        "identifier": [
          {
            "system": "urn:ietf:rfc:3986",
            "value": "urn:uuid:b40f022e-78dd-4dae-9997-e6e12f26604b"
          }
        ],
        "status": "final",
        "code": {
          "coding": [
            {
              "code": "736-9",
              "system": "http://loinc.org"
            }
          ]
        },
        "subject": {
          "reference": "Patient/08aa51f0-4e02-4d29-8210-cf0dc558100b"
        },
        "result": [
          {
            "reference": "Observation/1f5a29ee-8457-7335-e3fe-d822444dd275"
          }
        ],
        "meta": {
          "source": [
            "ecr"
          ]
        }
      },
      "request": {
        "method": "PUT",
        "url": "DiagnosticReport/d823d57d-450c-2c0f-69c8-2fb002b8d98d"
      }
    },
    {
      "fullUrl": "urn:uuid:1f5a29ee-8457-7335-e3fe-d822444dd275",
      "resource": {
        "resourceType": "Observation",
        "id": "1f5a29ee-8457-7335-e3fe-d822444dd275",
        "meta": {
          "profile": [
            "http://hl7.org/fhir/us/core/StructureDefinition/us-core-observationresults"
          ],
          "source": [
            "ecr"
          ]
        },
        "identifier": [
          {
            "system": "urn:oid:2.16.840.1.113883",
            "value": "https://fhir-ehr.cerner.com/r4/da0b5d99-573c-4f5e-aaf6-8d39fa93d033/Observation/M-19269602310/_history/1"
          }
        ],
        "category": [
          {
            "coding": [
              {
                "system": "http://terminology.hl7.org/CodeSystem/observation-category",
                "code": "laboratory"
              }
            ]
          }
        ],
        "status": "final",
        "code": {
          "coding": [
            {
              "code": "736-9",
              "system": "http://loinc.org"
            }
          ]
        },
        "effectiveDateTime": "2022-04-13T09:46:00Z",
        "valueQuantity": {
          "value": 34.1,
          "unit": "%"
        },
        "subject": {
          "reference": "Patient/08aa51f0-4e02-4d29-8210-cf0dc558100b"
        }
      },
      "request": {
        "method": "PUT",
        "url": "Observation/1f5a29ee-8457-7335-e3fe-d822444dd275"
      }
    },
    {
      "fullUrl": "urn:uuid:95a77931-57d7-b0d1-45b4-f3015156e3e9",
      "resource": {
        "resourceType": "DiagnosticReport",
        "id": "95a77931-57d7-b0d1-45b4-f3015156e3e9",
        "identifier": [
          {
            "system": "urn:ietf:rfc:3986",
            "value": "urn:uuid:897cd877-6da9-411e-8fb7-a111adab864f"
          }
        ],
        "status": "final",
        "code": {
          "coding": [
            {
              "code": "770-8",
              "system": "http://loinc.org"
            }
          ]
        },
        "subject": {
          "reference": "Patient/08aa51f0-4e02-4d29-8210-cf0dc558100b"
        },
        "result": [
          {
            "reference": "Observation/429df413-06a2-d77e-f731-4e97b347bdc0"
          }
        ],
        "meta": {
          "source": [
            "ecr"
          ]
        }
      },
      "request": {
        "method": "PUT",
        "url": "DiagnosticReport/95a77931-57d7-b0d1-45b4-f3015156e3e9"
      }
    },
    {
      "fullUrl": "urn:uuid:429df413-06a2-d77e-f731-4e97b347bdc0",
      "resource": {
        "resourceType": "Observation",
        "id": "429df413-06a2-d77e-f731-4e97b347bdc0",
        "meta": {
          "profile": [
            "http://hl7.org/fhir/us/core/StructureDefinition/us-core-observationresults"
          ],
          "source": [
            "ecr"
          ]
        },
        "identifier": [
          {
            "system": "urn:oid:2.16.840.1.113883",
            "value": "https://fhir-ehr.cerner.com/r4/da0b5d99-573c-4f5e-aaf6-8d39fa93d033/Observation/M-19269602308/_history/1"
          }
        ],
        "category": [
          {
            "coding": [
              {
                "system": "http://terminology.hl7.org/CodeSystem/observation-category",
                "code": "laboratory"
              }
            ]
          }
        ],
        "status": "final",
        "code": {
          "coding": [
            {
              "code": "770-8",
              "system": "http://loinc.org"
            }
          ]
        },
        "effectiveDateTime": "2022-04-13T09:46:00Z",
        "valueQuantity": {
          "value": 56.1,
          "unit": "%"
        },
        "subject": {
          "reference": "Patient/08aa51f0-4e02-4d29-8210-cf0dc558100b"
        }
      },
      "request": {
        "method": "PUT",
        "url": "Observation/429df413-06a2-d77e-f731-4e97b347bdc0"
      }
    },
    {
      "fullUrl": "urn:uuid:f9f56e24-1865-f3d8-2100-cb7114b5c3f1",
      "resource": {
        "resourceType": "DiagnosticReport",
        "id": "f9f56e24-1865-f3d8-2100-cb7114b5c3f1",
        "identifier": [
          {
            "system": "urn:ietf:rfc:3986",
            "value": "urn:uuid:5f4c64c0-8cff-49ba-9597-642ddb7596a5"
          }
        ],
        "status": "final",
        "code": {
          "coding": [
            {
              "code": "17861-6",
              "system": "http://loinc.org"
            }
          ]
        },
        "subject": {
          "reference": "Patient/08aa51f0-4e02-4d29-8210-cf0dc558100b"
        },
        "result": [
          {
            "reference": "Observation/69440382-d882-a856-4f9e-c412e888afab"
          }
        ],
        "meta": {
          "source": [
            "ecr"
          ]
        }
      },
      "request": {
        "method": "PUT",
        "url": "DiagnosticReport/f9f56e24-1865-f3d8-2100-cb7114b5c3f1"
      }
    },
    {
      "fullUrl": "urn:uuid:69440382-d882-a856-4f9e-c412e888afab",
      "resource": {
        "resourceType": "Observation",
        "id": "69440382-d882-a856-4f9e-c412e888afab",
        "meta": {
          "profile": [
            "http://hl7.org/fhir/us/core/StructureDefinition/us-core-observationresults"
          ],
          "source": [
            "ecr"
          ]
        },
        "identifier": [
          {
            "system": "urn:oid:2.16.840.1.113883",
            "value": "https://fhir-ehr.cerner.com/r4/da0b5d99-573c-4f5e-aaf6-8d39fa93d033/Observation/M-19269550295/_history/1"
          }
        ],
        "category": [
          {
            "coding": [
              {
                "system": "http://terminology.hl7.org/CodeSystem/observation-category",
                "code": "laboratory"
              }
            ]
          }
        ],
        "status": "final",
        "code": {
          "coding": [
            {
              "code": "17861-6",
              "system": "http://loinc.org"
            }
          ]
        },
        "effectiveDateTime": "2022-04-13T09:46:00Z",
        "valueQuantity": {
          "value": 9.6,
          "unit": "mg/dL"
        },
        "interpretation": [
          {
            "coding": [
              {
                "code": "N",
                "display": "Normal",
                "system": "http://terminology.hl7.org/CodeSystem/v3-ObservationInterpretation"
              }
            ]
          }
        ],
        "subject": {
          "reference": "Patient/08aa51f0-4e02-4d29-8210-cf0dc558100b"
        }
      },
      "request": {
        "method": "PUT",
        "url": "Observation/69440382-d882-a856-4f9e-c412e888afab"
      }
    },
    {
      "fullUrl": "urn:uuid:f6aa1d98-0419-05b5-f2b8-28b3ca474c53",
      "resource": {
        "resourceType": "DiagnosticReport",
        "id": "f6aa1d98-0419-05b5-f2b8-28b3ca474c53",
        "identifier": [
          {
            "system": "urn:ietf:rfc:3986",
            "value": "urn:uuid:1a5aaa1b-7d02-46b3-9d63-89da26fed7dc"
          }
        ],
        "status": "final",
        "code": {
          "coding": [
            {
              "code": "21000-5",
              "system": "http://loinc.org"
            }
          ]
        },
        "subject": {
          "reference": "Patient/08aa51f0-4e02-4d29-8210-cf0dc558100b"
        },
        "result": [
          {
            "reference": "Observation/0ea8d3c1-57c5-2634-3abf-c64fa70005a5"
          }
        ],
        "meta": {
          "source": [
            "ecr"
          ]
        }
      },
      "request": {
        "method": "PUT",
        "url": "DiagnosticReport/f6aa1d98-0419-05b5-f2b8-28b3ca474c53"
      }
    },
    {
      "fullUrl": "urn:uuid:0ea8d3c1-57c5-2634-3abf-c64fa70005a5",
      "resource": {
        "resourceType": "Observation",
        "id": "0ea8d3c1-57c5-2634-3abf-c64fa70005a5",
        "meta": {
          "profile": [
            "http://hl7.org/fhir/us/core/StructureDefinition/us-core-observationresults"
          ],
          "source": [
            "ecr"
          ]
        },
        "identifier": [
          {
            "system": "urn:oid:2.16.840.1.113883",
            "value": "https://fhir-ehr.cerner.com/r4/da0b5d99-573c-4f5e-aaf6-8d39fa93d033/Observation/M-19269505780/_history/1"
          }
        ],
        "category": [
          {
            "coding": [
              {
                "system": "http://terminology.hl7.org/CodeSystem/observation-category",
                "code": "laboratory"
              }
            ]
          }
        ],
        "status": "final",
        "code": {
          "coding": [
            {
              "code": "21000-5",
              "system": "http://loinc.org"
            }
          ]
        },
        "effectiveDateTime": "2022-04-13T09:46:00Z",
        "valueQuantity": {
          "value": 45.6,
          "unit": "Femtoliters"
        },
        "interpretation": [
          {
            "coding": [
              {
                "code": "N",
                "display": "Normal",
                "system": "http://terminology.hl7.org/CodeSystem/v3-ObservationInterpretation"
              }
            ]
          }
        ],
        "subject": {
          "reference": "Patient/08aa51f0-4e02-4d29-8210-cf0dc558100b"
        }
      },
      "request": {
        "method": "PUT",
        "url": "Observation/0ea8d3c1-57c5-2634-3abf-c64fa70005a5"
      }
    },
    {
      "fullUrl": "urn:uuid:ead68cb0-c653-73f6-4109-8a3c44f24e87",
      "resource": {
        "resourceType": "DiagnosticReport",
        "id": "ead68cb0-c653-73f6-4109-8a3c44f24e87",
        "identifier": [
          {
            "system": "urn:ietf:rfc:3986",
            "value": "urn:uuid:54510b64-972e-45c6-8135-596d5cadc242"
          }
        ],
        "status": "final",
        "code": {
          "coding": [
            {
              "code": "53115-2",
              "system": "http://loinc.org"
            }
          ]
        },
        "subject": {
          "reference": "Patient/08aa51f0-4e02-4d29-8210-cf0dc558100b"
        },
        "result": [
          {
            "reference": "Observation/044e7114-dfcb-aba2-4907-941950460037"
          }
        ],
        "meta": {
          "source": [
            "ecr"
          ]
        }
      },
      "request": {
        "method": "PUT",
        "url": "DiagnosticReport/ead68cb0-c653-73f6-4109-8a3c44f24e87"
      }
    },
    {
      "fullUrl": "urn:uuid:044e7114-dfcb-aba2-4907-941950460037",
      "resource": {
        "resourceType": "Observation",
        "id": "044e7114-dfcb-aba2-4907-941950460037",
        "meta": {
          "profile": [
            "http://hl7.org/fhir/us/core/StructureDefinition/us-core-observationresults"
          ],
          "source": [
            "ecr"
          ]
        },
        "identifier": [
          {
            "system": "urn:oid:2.16.840.1.113883",
            "value": "https://fhir-ehr.cerner.com/r4/da0b5d99-573c-4f5e-aaf6-8d39fa93d033/Observation/M-19269602328/_history/1"
          }
        ],
        "category": [
          {
            "coding": [
              {
                "system": "http://terminology.hl7.org/CodeSystem/observation-category",
                "code": "laboratory"
              }
            ]
          }
        ],
        "status": "final",
        "code": {
          "coding": [
            {
              "code": "53115-2",
              "system": "http://loinc.org"
            }
          ]
        },
        "effectiveDateTime": "2022-04-13T09:46:00Z",
        "valueQuantity": {
          "value": 0.03,
          "unit": "x10e3/mcL"
        },
        "interpretation": [
          {
            "coding": [
              {
                "code": "N",
                "display": "Normal",
                "system": "http://terminology.hl7.org/CodeSystem/v3-ObservationInterpretation"
              }
            ]
          }
        ],
        "subject": {
          "reference": "Patient/08aa51f0-4e02-4d29-8210-cf0dc558100b"
        }
      },
      "request": {
        "method": "PUT",
        "url": "Observation/044e7114-dfcb-aba2-4907-941950460037"
      }
    },
    {
      "fullUrl": "urn:uuid:1a75a5a4-5fd6-a40d-22ab-0bcf2516ca98",
      "resource": {
        "resourceType": "DiagnosticReport",
        "id": "1a75a5a4-5fd6-a40d-22ab-0bcf2516ca98",
        "identifier": [
          {
            "system": "urn:ietf:rfc:3986",
            "value": "urn:uuid:e4012383-c2c2-49b2-a2df-b8f0f760df2c"
          }
        ],
        "status": "final",
        "code": {
          "coding": [
            {
              "code": "731-0",
              "system": "http://loinc.org"
            }
          ]
        },
        "subject": {
          "reference": "Patient/08aa51f0-4e02-4d29-8210-cf0dc558100b"
        },
        "result": [
          {
            "reference": "Observation/d229da3a-c1f1-0510-237e-6cc9208ea6ab"
          }
        ],
        "meta": {
          "source": [
            "ecr"
          ]
        }
      },
      "request": {
        "method": "PUT",
        "url": "DiagnosticReport/1a75a5a4-5fd6-a40d-22ab-0bcf2516ca98"
      }
    },
    {
      "fullUrl": "urn:uuid:d229da3a-c1f1-0510-237e-6cc9208ea6ab",
      "resource": {
        "resourceType": "Observation",
        "id": "d229da3a-c1f1-0510-237e-6cc9208ea6ab",
        "meta": {
          "profile": [
            "http://hl7.org/fhir/us/core/StructureDefinition/us-core-observationresults"
          ],
          "source": [
            "ecr"
          ]
        },
        "identifier": [
          {
            "system": "urn:oid:2.16.840.1.113883",
            "value": "https://fhir-ehr.cerner.com/r4/da0b5d99-573c-4f5e-aaf6-8d39fa93d033/Observation/M-19269602320/_history/1"
          }
        ],
        "category": [
          {
            "coding": [
              {
                "system": "http://terminology.hl7.org/CodeSystem/observation-category",
                "code": "laboratory"
              }
            ]
          }
        ],
        "status": "final",
        "code": {
          "coding": [
            {
              "code": "731-0",
              "system": "http://loinc.org"
            }
          ]
        },
        "effectiveDateTime": "2022-04-13T09:46:00Z",
        "valueQuantity": {
          "value": 4.67,
          "unit": "x10e3/mcL"
        },
        "interpretation": [
          {
            "coding": [
              {
                "code": "H",
                "display": "High",
                "system": "http://terminology.hl7.org/CodeSystem/v3-ObservationInterpretation"
              }
            ]
          }
        ],
        "subject": {
          "reference": "Patient/08aa51f0-4e02-4d29-8210-cf0dc558100b"
        }
      },
      "request": {
        "method": "PUT",
        "url": "Observation/d229da3a-c1f1-0510-237e-6cc9208ea6ab"
      }
    },
    {
      "fullUrl": "urn:uuid:a87477cb-6fe0-d4b1-9d34-fc25bdff0f4d",
      "resource": {
        "resourceType": "DiagnosticReport",
        "id": "a87477cb-6fe0-d4b1-9d34-fc25bdff0f4d",
        "identifier": [
          {
            "system": "urn:ietf:rfc:3986",
            "value": "urn:uuid:bc9a0edf-31ea-412e-beac-5aec8b1f899c"
          }
        ],
        "status": "final",
        "code": {
          "coding": [
            {
              "code": "5905-5",
              "system": "http://loinc.org"
            }
          ]
        },
        "subject": {
          "reference": "Patient/08aa51f0-4e02-4d29-8210-cf0dc558100b"
        },
        "result": [
          {
            "reference": "Observation/5344c9f1-66ce-bc57-d9f9-3dc680648eed"
          }
        ],
        "meta": {
          "source": [
            "ecr"
          ]
        }
      },
      "request": {
        "method": "PUT",
        "url": "DiagnosticReport/a87477cb-6fe0-d4b1-9d34-fc25bdff0f4d"
      }
    },
    {
      "fullUrl": "urn:uuid:5344c9f1-66ce-bc57-d9f9-3dc680648eed",
      "resource": {
        "resourceType": "Observation",
        "id": "5344c9f1-66ce-bc57-d9f9-3dc680648eed",
        "meta": {
          "profile": [
            "http://hl7.org/fhir/us/core/StructureDefinition/us-core-observationresults"
          ],
          "source": [
            "ecr"
          ]
        },
        "identifier": [
          {
            "system": "urn:oid:2.16.840.1.113883",
            "value": "https://fhir-ehr.cerner.com/r4/da0b5d99-573c-4f5e-aaf6-8d39fa93d033/Observation/M-19269602312/_history/1"
          }
        ],
        "category": [
          {
            "coding": [
              {
                "system": "http://terminology.hl7.org/CodeSystem/observation-category",
                "code": "laboratory"
              }
            ]
          }
        ],
        "status": "final",
        "code": {
          "coding": [
            {
              "code": "5905-5",
              "system": "http://loinc.org"
            }
          ]
        },
        "effectiveDateTime": "2022-04-13T09:46:00Z",
        "valueQuantity": {
          "value": 8.4,
          "unit": "%"
        },
        "subject": {
          "reference": "Patient/08aa51f0-4e02-4d29-8210-cf0dc558100b"
        }
      },
      "request": {
        "method": "PUT",
        "url": "Observation/5344c9f1-66ce-bc57-d9f9-3dc680648eed"
      }
    },
    {
      "fullUrl": "urn:uuid:006b8996-c3a0-5eb7-241e-b5ec73a5931d",
      "resource": {
        "resourceType": "DiagnosticReport",
        "id": "006b8996-c3a0-5eb7-241e-b5ec73a5931d",
        "identifier": [
          {
            "system": "urn:ietf:rfc:3986",
            "value": "urn:uuid:debfb8f6-1cae-4778-aea9-f0adfefbf136"
          }
        ],
        "status": "final",
        "code": {
          "coding": [
            {
              "code": "788-0",
              "system": "http://loinc.org"
            }
          ]
        },
        "subject": {
          "reference": "Patient/08aa51f0-4e02-4d29-8210-cf0dc558100b"
        },
        "result": [
          {
            "reference": "Observation/3d91e4d9-4fad-1596-d17a-c2ea3e475c4a"
          }
        ],
        "meta": {
          "source": [
            "ecr"
          ]
        }
      },
      "request": {
        "method": "PUT",
        "url": "DiagnosticReport/006b8996-c3a0-5eb7-241e-b5ec73a5931d"
      }
    },
    {
      "fullUrl": "urn:uuid:3d91e4d9-4fad-1596-d17a-c2ea3e475c4a",
      "resource": {
        "resourceType": "Observation",
        "id": "3d91e4d9-4fad-1596-d17a-c2ea3e475c4a",
        "meta": {
          "profile": [
            "http://hl7.org/fhir/us/core/StructureDefinition/us-core-observationresults"
          ],
          "source": [
            "ecr"
          ]
        },
        "identifier": [
          {
            "system": "urn:oid:2.16.840.1.113883",
            "value": "https://fhir-ehr.cerner.com/r4/da0b5d99-573c-4f5e-aaf6-8d39fa93d033/Observation/M-19269505782/_history/1"
          }
        ],
        "category": [
          {
            "coding": [
              {
                "system": "http://terminology.hl7.org/CodeSystem/observation-category",
                "code": "laboratory"
              }
            ]
          }
        ],
        "status": "final",
        "code": {
          "coding": [
            {
              "code": "788-0",
              "system": "http://loinc.org"
            }
          ]
        },
        "effectiveDateTime": "2022-04-13T09:46:00Z",
        "valueQuantity": {
          "value": 17.5,
          "unit": "%"
        },
        "interpretation": [
          {
            "coding": [
              {
                "code": "H",
                "display": "High",
                "system": "http://terminology.hl7.org/CodeSystem/v3-ObservationInterpretation"
              }
            ]
          }
        ],
        "subject": {
          "reference": "Patient/08aa51f0-4e02-4d29-8210-cf0dc558100b"
        }
      },
      "request": {
        "method": "PUT",
        "url": "Observation/3d91e4d9-4fad-1596-d17a-c2ea3e475c4a"
      }
    },
    {
      "fullUrl": "urn:uuid:916adcd0-5288-8d25-4bf7-4959c4dcefa5",
      "resource": {
        "resourceType": "DiagnosticReport",
        "id": "916adcd0-5288-8d25-4bf7-4959c4dcefa5",
        "identifier": [
          {
            "system": "urn:ietf:rfc:3986",
            "value": "urn:uuid:cf4646b5-eddb-49d3-9a01-5e98c0360d26"
          }
        ],
        "status": "final",
        "code": {
          "coding": [
            {
              "code": "71695-1",
              "system": "http://loinc.org"
            }
          ]
        },
        "subject": {
          "reference": "Patient/08aa51f0-4e02-4d29-8210-cf0dc558100b"
        },
        "result": [
          {
            "reference": "Observation/56922e8d-02c0-2496-976c-ff6158390c05"
          }
        ],
        "meta": {
          "source": [
            "ecr"
          ]
        }
      },
      "request": {
        "method": "PUT",
        "url": "DiagnosticReport/916adcd0-5288-8d25-4bf7-4959c4dcefa5"
      }
    },
    {
      "fullUrl": "urn:uuid:56922e8d-02c0-2496-976c-ff6158390c05",
      "resource": {
        "resourceType": "Observation",
        "id": "56922e8d-02c0-2496-976c-ff6158390c05",
        "meta": {
          "profile": [
            "http://hl7.org/fhir/us/core/StructureDefinition/us-core-observationresults"
          ],
          "source": [
            "ecr"
          ]
        },
        "identifier": [
          {
            "system": "urn:oid:2.16.840.1.113883",
            "value": "https://fhir-ehr.cerner.com/r4/da0b5d99-573c-4f5e-aaf6-8d39fa93d033/Observation/M-19269602330/_history/1"
          }
        ],
        "category": [
          {
            "coding": [
              {
                "system": "http://terminology.hl7.org/CodeSystem/observation-category",
                "code": "laboratory"
              }
            ]
          }
        ],
        "status": "final",
        "code": {
          "coding": [
            {
              "code": "71695-1",
              "system": "http://loinc.org"
            }
          ]
        },
        "effectiveDateTime": "2022-04-13T09:46:00Z",
        "valueQuantity": {
          "value": 0.2,
          "unit": "%"
        },
        "interpretation": [
          {
            "coding": [
              {
                "code": "N",
                "display": "Normal",
                "system": "http://terminology.hl7.org/CodeSystem/v3-ObservationInterpretation"
              }
            ]
          }
        ],
        "subject": {
          "reference": "Patient/08aa51f0-4e02-4d29-8210-cf0dc558100b"
        }
      },
      "request": {
        "method": "PUT",
        "url": "Observation/56922e8d-02c0-2496-976c-ff6158390c05"
      }
    },
    {
      "fullUrl": "urn:uuid:c3beb1a4-aac9-c769-651b-d2cd521cf402",
      "resource": {
        "resourceType": "DiagnosticReport",
        "id": "c3beb1a4-aac9-c769-651b-d2cd521cf402",
        "identifier": [
          {
            "system": "urn:ietf:rfc:3986",
            "value": "urn:uuid:1d63664c-f130-48b5-b4d9-913ab625b94c"
          }
        ],
        "status": "final",
        "code": {
          "coding": [
            {
              "code": "711-2",
              "system": "http://loinc.org"
            }
          ]
        },
        "subject": {
          "reference": "Patient/08aa51f0-4e02-4d29-8210-cf0dc558100b"
        },
        "result": [
          {
            "reference": "Observation/b791a0a8-e880-7ca5-9b22-b8d89ed8fa4b"
          }
        ],
        "meta": {
          "source": [
            "ecr"
          ]
        }
      },
      "request": {
        "method": "PUT",
        "url": "DiagnosticReport/c3beb1a4-aac9-c769-651b-d2cd521cf402"
      }
    },
    {
      "fullUrl": "urn:uuid:b791a0a8-e880-7ca5-9b22-b8d89ed8fa4b",
      "resource": {
        "resourceType": "Observation",
        "id": "b791a0a8-e880-7ca5-9b22-b8d89ed8fa4b",
        "meta": {
          "profile": [
            "http://hl7.org/fhir/us/core/StructureDefinition/us-core-observationresults"
          ],
          "source": [
            "ecr"
          ]
        },
        "identifier": [
          {
            "system": "urn:oid:2.16.840.1.113883",
            "value": "https://fhir-ehr.cerner.com/r4/da0b5d99-573c-4f5e-aaf6-8d39fa93d033/Observation/M-19269602324/_history/1"
          }
        ],
        "category": [
          {
            "coding": [
              {
                "system": "http://terminology.hl7.org/CodeSystem/observation-category",
                "code": "laboratory"
              }
            ]
          }
        ],
        "status": "final",
        "code": {
          "coding": [
            {
              "code": "711-2",
              "system": "http://loinc.org"
            }
          ]
        },
        "effectiveDateTime": "2022-04-13T09:46:00Z",
        "valueQuantity": {
          "value": 0.11,
          "unit": "x10e3/mcL"
        },
        "interpretation": [
          {
            "coding": [
              {
                "code": "N",
                "display": "Normal",
                "system": "http://terminology.hl7.org/CodeSystem/v3-ObservationInterpretation"
              }
            ]
          }
        ],
        "subject": {
          "reference": "Patient/08aa51f0-4e02-4d29-8210-cf0dc558100b"
        }
      },
      "request": {
        "method": "PUT",
        "url": "Observation/b791a0a8-e880-7ca5-9b22-b8d89ed8fa4b"
      }
    },
    {
      "fullUrl": "urn:uuid:ed0c7be7-40d8-fb98-a418-3230d5988623",
      "resource": {
        "resourceType": "DiagnosticReport",
        "id": "ed0c7be7-40d8-fb98-a418-3230d5988623",
        "identifier": [
          {
            "system": "urn:ietf:rfc:3986",
            "value": "urn:uuid:c59ce549-3392-4c46-aa87-ee7500c571aa"
          }
        ],
        "status": "final",
        "code": {
          "coding": [
            {
              "code": "2075-0",
              "system": "http://loinc.org"
            }
          ]
        },
        "subject": {
          "reference": "Patient/08aa51f0-4e02-4d29-8210-cf0dc558100b"
        },
        "result": [
          {
            "reference": "Observation/b4709b3f-4698-6cf2-c699-cfcacf8a472a"
          }
        ],
        "meta": {
          "source": [
            "ecr"
          ]
        }
      },
      "request": {
        "method": "PUT",
        "url": "DiagnosticReport/ed0c7be7-40d8-fb98-a418-3230d5988623"
      }
    },
    {
      "fullUrl": "urn:uuid:b4709b3f-4698-6cf2-c699-cfcacf8a472a",
      "resource": {
        "resourceType": "Observation",
        "id": "b4709b3f-4698-6cf2-c699-cfcacf8a472a",
        "meta": {
          "profile": [
            "http://hl7.org/fhir/us/core/StructureDefinition/us-core-observationresults"
          ],
          "source": [
            "ecr"
          ]
        },
        "identifier": [
          {
            "system": "urn:oid:2.16.840.1.113883",
            "value": "https://fhir-ehr.cerner.com/r4/da0b5d99-573c-4f5e-aaf6-8d39fa93d033/Observation/M-19269550263/_history/1"
          }
        ],
        "category": [
          {
            "coding": [
              {
                "system": "http://terminology.hl7.org/CodeSystem/observation-category",
                "code": "laboratory"
              }
            ]
          }
        ],
        "status": "final",
        "code": {
          "coding": [
            {
              "code": "2075-0",
              "system": "http://loinc.org"
            }
          ]
        },
        "effectiveDateTime": "2022-04-13T09:46:00Z",
        "valueQuantity": {
          "value": 105,
          "unit": "mmol/L"
        },
        "interpretation": [
          {
            "coding": [
              {
                "code": "N",
                "display": "Normal",
                "system": "http://terminology.hl7.org/CodeSystem/v3-ObservationInterpretation"
              }
            ]
          }
        ],
        "subject": {
          "reference": "Patient/08aa51f0-4e02-4d29-8210-cf0dc558100b"
        }
      },
      "request": {
        "method": "PUT",
        "url": "Observation/b4709b3f-4698-6cf2-c699-cfcacf8a472a"
      }
    },
    {
      "fullUrl": "urn:uuid:0b185d97-7ddb-1cb2-8375-88a88c8faa5d",
      "resource": {
        "resourceType": "DiagnosticReport",
        "id": "0b185d97-7ddb-1cb2-8375-88a88c8faa5d",
        "identifier": [
          {
            "system": "urn:ietf:rfc:3986",
            "value": "urn:uuid:810a7578-af20-4093-b8b3-7eb6c2b8b6a6"
          }
        ],
        "status": "final",
        "code": {
          "coding": [
            {
              "code": "3094-0",
              "system": "http://loinc.org"
            }
          ]
        },
        "subject": {
          "reference": "Patient/08aa51f0-4e02-4d29-8210-cf0dc558100b"
        },
        "result": [
          {
            "reference": "Observation/066b4676-2063-02ea-17a9-97417d03bf53"
          }
        ],
        "meta": {
          "source": [
            "ecr"
          ]
        }
      },
      "request": {
        "method": "PUT",
        "url": "DiagnosticReport/0b185d97-7ddb-1cb2-8375-88a88c8faa5d"
      }
    },
    {
      "fullUrl": "urn:uuid:066b4676-2063-02ea-17a9-97417d03bf53",
      "resource": {
        "resourceType": "Observation",
        "id": "066b4676-2063-02ea-17a9-97417d03bf53",
        "meta": {
          "profile": [
            "http://hl7.org/fhir/us/core/StructureDefinition/us-core-observationresults"
          ],
          "source": [
            "ecr"
          ]
        },
        "identifier": [
          {
            "system": "urn:oid:2.16.840.1.113883",
            "value": "https://fhir-ehr.cerner.com/r4/da0b5d99-573c-4f5e-aaf6-8d39fa93d033/Observation/M-19269550271/_history/1"
          }
        ],
        "category": [
          {
            "coding": [
              {
                "system": "http://terminology.hl7.org/CodeSystem/observation-category",
                "code": "laboratory"
              }
            ]
          }
        ],
        "status": "final",
        "code": {
          "coding": [
            {
              "code": "3094-0",
              "system": "http://loinc.org"
            }
          ]
        },
        "effectiveDateTime": "2022-04-13T09:46:00Z",
        "valueQuantity": {
          "value": 23,
          "unit": "mg/dL"
        },
        "interpretation": [
          {
            "coding": [
              {
                "code": "H",
                "display": "High",
                "system": "http://terminology.hl7.org/CodeSystem/v3-ObservationInterpretation"
              }
            ]
          }
        ],
        "subject": {
          "reference": "Patient/08aa51f0-4e02-4d29-8210-cf0dc558100b"
        }
      },
      "request": {
        "method": "PUT",
        "url": "Observation/066b4676-2063-02ea-17a9-97417d03bf53"
      }
    },
    {
      "fullUrl": "urn:uuid:e65376c5-6d08-31cc-ed0b-d83b759075f4",
      "resource": {
        "resourceType": "DiagnosticReport",
        "id": "e65376c5-6d08-31cc-ed0b-d83b759075f4",
        "identifier": [
          {
            "system": "urn:ietf:rfc:3986",
            "value": "urn:uuid:e42f0641-8fd0-45fb-81ee-d9f14cc025c6"
          }
        ],
        "status": "final",
        "code": {
          "coding": [
            {
              "code": "777-3",
              "system": "http://loinc.org"
            }
          ]
        },
        "subject": {
          "reference": "Patient/08aa51f0-4e02-4d29-8210-cf0dc558100b"
        },
        "result": [
          {
            "reference": "Observation/621276aa-7543-5ee3-bc8d-5727baa1bb73"
          }
        ],
        "meta": {
          "source": [
            "ecr"
          ]
        }
      },
      "request": {
        "method": "PUT",
        "url": "DiagnosticReport/e65376c5-6d08-31cc-ed0b-d83b759075f4"
      }
    },
    {
      "fullUrl": "urn:uuid:621276aa-7543-5ee3-bc8d-5727baa1bb73",
      "resource": {
        "resourceType": "Observation",
        "id": "621276aa-7543-5ee3-bc8d-5727baa1bb73",
        "meta": {
          "profile": [
            "http://hl7.org/fhir/us/core/StructureDefinition/us-core-observationresults"
          ],
          "source": [
            "ecr"
          ]
        },
        "identifier": [
          {
            "system": "urn:oid:2.16.840.1.113883",
            "value": "https://fhir-ehr.cerner.com/r4/da0b5d99-573c-4f5e-aaf6-8d39fa93d033/Observation/M-19269505776/_history/1"
          }
        ],
        "category": [
          {
            "coding": [
              {
                "system": "http://terminology.hl7.org/CodeSystem/observation-category",
                "code": "laboratory"
              }
            ]
          }
        ],
        "status": "final",
        "code": {
          "coding": [
            {
              "code": "777-3",
              "system": "http://loinc.org"
            }
          ]
        },
        "effectiveDateTime": "2022-04-13T09:46:00Z",
        "valueQuantity": {
          "value": 315,
          "unit": "x10e3/mcL"
        },
        "interpretation": [
          {
            "coding": [
              {
                "code": "N",
                "display": "Normal",
                "system": "http://terminology.hl7.org/CodeSystem/v3-ObservationInterpretation"
              }
            ]
          }
        ],
        "subject": {
          "reference": "Patient/08aa51f0-4e02-4d29-8210-cf0dc558100b"
        }
      },
      "request": {
        "method": "PUT",
        "url": "Observation/621276aa-7543-5ee3-bc8d-5727baa1bb73"
      }
    },
    {
      "fullUrl": "urn:uuid:a97d2676-6c6e-3387-4e55-05a176ab9e7e",
      "resource": {
        "resourceType": "DiagnosticReport",
        "id": "a97d2676-6c6e-3387-4e55-05a176ab9e7e",
        "identifier": [
          {
            "system": "urn:ietf:rfc:3986",
            "value": "urn:uuid:51631b05-fffa-41b5-b23a-8031d5dbbc95"
          }
        ],
        "status": "final",
        "code": {
          "coding": [
            {
              "code": "6690-2",
              "system": "http://loinc.org"
            }
          ]
        },
        "subject": {
          "reference": "Patient/08aa51f0-4e02-4d29-8210-cf0dc558100b"
        },
        "result": [
          {
            "reference": "Observation/3bd40df1-ef92-7dd5-d887-d35a81202fb0"
          }
        ],
        "meta": {
          "source": [
            "ecr"
          ]
        }
      },
      "request": {
        "method": "PUT",
        "url": "DiagnosticReport/a97d2676-6c6e-3387-4e55-05a176ab9e7e"
      }
    },
    {
      "fullUrl": "urn:uuid:3bd40df1-ef92-7dd5-d887-d35a81202fb0",
      "resource": {
        "resourceType": "Observation",
        "id": "3bd40df1-ef92-7dd5-d887-d35a81202fb0",
        "meta": {
          "profile": [
            "http://hl7.org/fhir/us/core/StructureDefinition/us-core-observationresults"
          ],
          "source": [
            "ecr"
          ]
        },
        "identifier": [
          {
            "system": "urn:oid:2.16.840.1.113883",
            "value": "https://fhir-ehr.cerner.com/r4/da0b5d99-573c-4f5e-aaf6-8d39fa93d033/Observation/M-19269505762/_history/1"
          }
        ],
        "category": [
          {
            "coding": [
              {
                "system": "http://terminology.hl7.org/CodeSystem/observation-category",
                "code": "laboratory"
              }
            ]
          }
        ],
        "status": "final",
        "code": {
          "coding": [
            {
              "code": "6690-2",
              "system": "http://loinc.org"
            }
          ]
        },
        "effectiveDateTime": "2022-04-13T09:46:00Z",
        "valueQuantity": {
          "value": 13.68,
          "unit": "x10e3/mcL"
        },
        "interpretation": [
          {
            "coding": [
              {
                "code": "H",
                "display": "High",
                "system": "http://terminology.hl7.org/CodeSystem/v3-ObservationInterpretation"
              }
            ]
          }
        ],
        "subject": {
          "reference": "Patient/08aa51f0-4e02-4d29-8210-cf0dc558100b"
        }
      },
      "request": {
        "method": "PUT",
        "url": "Observation/3bd40df1-ef92-7dd5-d887-d35a81202fb0"
      }
    },
    {
      "fullUrl": "urn:uuid:43672108-6c92-53e9-8a56-8419febf1276",
      "resource": {
        "resourceType": "DiagnosticReport",
        "id": "43672108-6c92-53e9-8a56-8419febf1276",
        "identifier": [
          {
            "system": "urn:ietf:rfc:3986",
            "value": "urn:uuid:9d9378e9-b87f-4f48-ac7d-0be3341024fa"
          }
        ],
        "status": "final",
        "code": {
          "coding": [
            {
              "code": "2885-2",
              "system": "http://loinc.org"
            }
          ]
        },
        "subject": {
          "reference": "Patient/08aa51f0-4e02-4d29-8210-cf0dc558100b"
        },
        "result": [
          {
            "reference": "Observation/b2c84c18-3a38-0d46-4e30-1b88b00113f8"
          }
        ],
        "meta": {
          "source": [
            "ecr"
          ]
        }
      },
      "request": {
        "method": "PUT",
        "url": "DiagnosticReport/43672108-6c92-53e9-8a56-8419febf1276"
      }
    },
    {
      "fullUrl": "urn:uuid:b2c84c18-3a38-0d46-4e30-1b88b00113f8",
      "resource": {
        "resourceType": "Observation",
        "id": "b2c84c18-3a38-0d46-4e30-1b88b00113f8",
        "meta": {
          "profile": [
            "http://hl7.org/fhir/us/core/StructureDefinition/us-core-observationresults"
          ],
          "source": [
            "ecr"
          ]
        },
        "identifier": [
          {
            "system": "urn:oid:2.16.840.1.113883",
            "value": "https://fhir-ehr.cerner.com/r4/da0b5d99-573c-4f5e-aaf6-8d39fa93d033/Observation/M-19269550299/_history/1"
          }
        ],
        "category": [
          {
            "coding": [
              {
                "system": "http://terminology.hl7.org/CodeSystem/observation-category",
                "code": "laboratory"
              }
            ]
          }
        ],
        "status": "final",
        "code": {
          "coding": [
            {
              "code": "2885-2",
              "system": "http://loinc.org"
            }
          ]
        },
        "effectiveDateTime": "2022-04-13T09:46:00Z",
        "valueQuantity": {
          "value": 7.5,
          "unit": "gm/dL"
        },
        "interpretation": [
          {
            "coding": [
              {
                "code": "N",
                "display": "Normal",
                "system": "http://terminology.hl7.org/CodeSystem/v3-ObservationInterpretation"
              }
            ]
          }
        ],
        "subject": {
          "reference": "Patient/08aa51f0-4e02-4d29-8210-cf0dc558100b"
        }
      },
      "request": {
        "method": "PUT",
        "url": "Observation/b2c84c18-3a38-0d46-4e30-1b88b00113f8"
      }
    },
    {
      "fullUrl": "urn:uuid:290868d3-9c7c-aaf0-cfa4-051ddcc984d0",
      "resource": {
        "resourceType": "DiagnosticReport",
        "id": "290868d3-9c7c-aaf0-cfa4-051ddcc984d0",
        "identifier": [
          {
            "system": "urn:ietf:rfc:3986",
            "value": "urn:uuid:e765bb6e-c03f-4847-932d-e40cf4a0bf39"
          }
        ],
        "status": "final",
        "code": {
          "coding": [
            {
              "code": "789-8",
              "system": "http://loinc.org"
            }
          ]
        },
        "subject": {
          "reference": "Patient/08aa51f0-4e02-4d29-8210-cf0dc558100b"
        },
        "result": [
          {
            "reference": "Observation/8a321025-e3bf-8461-f322-5eb614b05826"
          }
        ],
        "meta": {
          "source": [
            "ecr"
          ]
        }
      },
      "request": {
        "method": "PUT",
        "url": "DiagnosticReport/290868d3-9c7c-aaf0-cfa4-051ddcc984d0"
      }
    },
    {
      "fullUrl": "urn:uuid:8a321025-e3bf-8461-f322-5eb614b05826",
      "resource": {
        "resourceType": "Observation",
        "id": "8a321025-e3bf-8461-f322-5eb614b05826",
        "meta": {
          "profile": [
            "http://hl7.org/fhir/us/core/StructureDefinition/us-core-observationresults"
          ],
          "source": [
            "ecr"
          ]
        },
        "identifier": [
          {
            "system": "urn:oid:2.16.840.1.113883",
            "value": "https://fhir-ehr.cerner.com/r4/da0b5d99-573c-4f5e-aaf6-8d39fa93d033/Observation/M-19269505764/_history/1"
          }
        ],
        "category": [
          {
            "coding": [
              {
                "system": "http://terminology.hl7.org/CodeSystem/observation-category",
                "code": "laboratory"
              }
            ]
          }
        ],
        "status": "final",
        "code": {
          "coding": [
            {
              "code": "789-8",
              "system": "http://loinc.org"
            }
          ]
        },
        "effectiveDateTime": "2022-04-13T09:46:00Z",
        "valueQuantity": {
          "value": 5.41,
          "unit": "x10e6/mcL"
        },
        "interpretation": [
          {
            "coding": [
              {
                "code": "N",
                "display": "Normal",
                "system": "http://terminology.hl7.org/CodeSystem/v3-ObservationInterpretation"
              }
            ]
          }
        ],
        "subject": {
          "reference": "Patient/08aa51f0-4e02-4d29-8210-cf0dc558100b"
        }
      },
      "request": {
        "method": "PUT",
        "url": "Observation/8a321025-e3bf-8461-f322-5eb614b05826"
      }
    },
    {
      "fullUrl": "urn:uuid:b9e83123-4292-094e-de3d-c190b8f9aa0c",
      "resource": {
        "resourceType": "DiagnosticReport",
        "id": "b9e83123-4292-094e-de3d-c190b8f9aa0c",
        "identifier": [
          {
            "system": "urn:ietf:rfc:3986",
            "value": "urn:uuid:ff494cb9-cba8-4f6b-ac78-5a5d17077793"
          }
        ],
        "status": "final",
        "code": {
          "coding": [
            {
              "code": "14979-9",
              "system": "http://loinc.org"
            }
          ]
        },
        "subject": {
          "reference": "Patient/08aa51f0-4e02-4d29-8210-cf0dc558100b"
        },
        "result": [
          {
            "reference": "Observation/10cfcb3f-c5eb-3b8a-3967-3991829c0971"
          }
        ],
        "meta": {
          "source": [
            "ecr"
          ]
        }
      },
      "request": {
        "method": "PUT",
        "url": "DiagnosticReport/b9e83123-4292-094e-de3d-c190b8f9aa0c"
      }
    },
    {
      "fullUrl": "urn:uuid:10cfcb3f-c5eb-3b8a-3967-3991829c0971",
      "resource": {
        "resourceType": "Observation",
        "id": "10cfcb3f-c5eb-3b8a-3967-3991829c0971",
        "meta": {
          "profile": [
            "http://hl7.org/fhir/us/core/StructureDefinition/us-core-observationresults"
          ],
          "source": [
            "ecr"
          ]
        },
        "identifier": [
          {
            "system": "urn:oid:2.16.840.1.113883",
            "value": "https://fhir-ehr.cerner.com/r4/da0b5d99-573c-4f5e-aaf6-8d39fa93d033/Observation/M-19269612407/_history/1"
          }
        ],
        "category": [
          {
            "coding": [
              {
                "system": "http://terminology.hl7.org/CodeSystem/observation-category",
                "code": "laboratory"
              }
            ]
          }
        ],
        "status": "final",
        "code": {
          "coding": [
            {
              "code": "14979-9",
              "system": "http://loinc.org"
            }
          ]
        },
        "effectiveDateTime": "2022-04-13T09:46:00Z",
        "valueQuantity": {
          "value": 30,
          "unit": "Seconds"
        },
        "interpretation": [
          {
            "coding": [
              {
                "code": "N",
                "display": "Normal",
                "system": "http://terminology.hl7.org/CodeSystem/v3-ObservationInterpretation"
              }
            ]
          }
        ],
        "subject": {
          "reference": "Patient/08aa51f0-4e02-4d29-8210-cf0dc558100b"
        }
      },
      "request": {
        "method": "PUT",
        "url": "Observation/10cfcb3f-c5eb-3b8a-3967-3991829c0971"
      }
    },
    {
      "fullUrl": "urn:uuid:f1273dc8-676b-24ea-9373-2f5308e0e898",
      "resource": {
        "resourceType": "DiagnosticReport",
        "id": "f1273dc8-676b-24ea-9373-2f5308e0e898",
        "identifier": [
          {
            "system": "urn:ietf:rfc:3986",
            "value": "urn:uuid:414413e4-5728-4157-b158-f3e82ac29e27"
          }
        ],
        "status": "final",
        "code": {
          "coding": [
            {
              "code": "5902-2",
              "system": "http://loinc.org"
            }
          ]
        },
        "subject": {
          "reference": "Patient/08aa51f0-4e02-4d29-8210-cf0dc558100b"
        },
        "result": [
          {
            "reference": "Observation/338ac407-3f46-6208-7839-45ae1b03d8ae"
          }
        ],
        "meta": {
          "source": [
            "ecr"
          ]
        }
      },
      "request": {
        "method": "PUT",
        "url": "DiagnosticReport/f1273dc8-676b-24ea-9373-2f5308e0e898"
      }
    },
    {
      "fullUrl": "urn:uuid:338ac407-3f46-6208-7839-45ae1b03d8ae",
      "resource": {
        "resourceType": "Observation",
        "id": "338ac407-3f46-6208-7839-45ae1b03d8ae",
        "meta": {
          "profile": [
            "http://hl7.org/fhir/us/core/StructureDefinition/us-core-observationresults"
          ],
          "source": [
            "ecr"
          ]
        },
        "identifier": [
          {
            "system": "urn:oid:2.16.840.1.113883",
            "value": "https://fhir-ehr.cerner.com/r4/da0b5d99-573c-4f5e-aaf6-8d39fa93d033/Observation/M-19269623609/_history/1"
          }
        ],
        "category": [
          {
            "coding": [
              {
                "system": "http://terminology.hl7.org/CodeSystem/observation-category",
                "code": "laboratory"
              }
            ]
          }
        ],
        "status": "final",
        "code": {
          "coding": [
            {
              "code": "5902-2",
              "system": "http://loinc.org"
            }
          ]
        },
        "effectiveDateTime": "2022-04-13T09:46:00Z",
        "valueQuantity": {
          "value": 10.8,
          "unit": "Seconds"
        },
        "interpretation": [
          {
            "coding": [
              {
                "code": "N",
                "display": "Normal",
                "system": "http://terminology.hl7.org/CodeSystem/v3-ObservationInterpretation"
              }
            ]
          }
        ],
        "subject": {
          "reference": "Patient/08aa51f0-4e02-4d29-8210-cf0dc558100b"
        }
      },
      "request": {
        "method": "PUT",
        "url": "Observation/338ac407-3f46-6208-7839-45ae1b03d8ae"
      }
    },
    {
      "fullUrl": "urn:uuid:4b74bb4c-ae8b-b516-80ad-d8177508c401",
      "resource": {
        "resourceType": "DiagnosticReport",
        "id": "4b74bb4c-ae8b-b516-80ad-d8177508c401",
        "identifier": [
          {
            "system": "urn:ietf:rfc:3986",
            "value": "urn:uuid:f0f7348c-f5ba-4906-841f-db265a89dabb"
          }
        ],
        "status": "final",
        "code": {
          "coding": [
            {
              "code": "32623-1",
              "system": "http://loinc.org"
            }
          ]
        },
        "subject": {
          "reference": "Patient/08aa51f0-4e02-4d29-8210-cf0dc558100b"
        },
        "result": [
          {
            "reference": "Observation/98fe1669-1823-6044-0761-ea0776ac30f0"
          }
        ],
        "meta": {
          "source": [
            "ecr"
          ]
        }
      },
      "request": {
        "method": "PUT",
        "url": "DiagnosticReport/4b74bb4c-ae8b-b516-80ad-d8177508c401"
      }
    },
    {
      "fullUrl": "urn:uuid:98fe1669-1823-6044-0761-ea0776ac30f0",
      "resource": {
        "resourceType": "Observation",
        "id": "98fe1669-1823-6044-0761-ea0776ac30f0",
        "meta": {
          "profile": [
            "http://hl7.org/fhir/us/core/StructureDefinition/us-core-observationresults"
          ],
          "source": [
            "ecr"
          ]
        },
        "identifier": [
          {
            "system": "urn:oid:2.16.840.1.113883",
            "value": "https://fhir-ehr.cerner.com/r4/da0b5d99-573c-4f5e-aaf6-8d39fa93d033/Observation/M-19269505778/_history/1"
          }
        ],
        "category": [
          {
            "coding": [
              {
                "system": "http://terminology.hl7.org/CodeSystem/observation-category",
                "code": "laboratory"
              }
            ]
          }
        ],
        "status": "final",
        "code": {
          "coding": [
            {
              "code": "32623-1",
              "system": "http://loinc.org"
            }
          ]
        },
        "effectiveDateTime": "2022-04-13T09:46:00Z",
        "valueQuantity": {
          "value": 8.3,
          "unit": "Femtoliters"
        },
        "interpretation": [
          {
            "coding": [
              {
                "code": "N",
                "display": "Normal",
                "system": "http://terminology.hl7.org/CodeSystem/v3-ObservationInterpretation"
              }
            ]
          }
        ],
        "subject": {
          "reference": "Patient/08aa51f0-4e02-4d29-8210-cf0dc558100b"
        }
      },
      "request": {
        "method": "PUT",
        "url": "Observation/98fe1669-1823-6044-0761-ea0776ac30f0"
      }
    },
    {
      "fullUrl": "urn:uuid:820e27b1-586a-6a8f-d3ed-e257e9a5f6c7",
      "resource": {
        "resourceType": "DiagnosticReport",
        "id": "820e27b1-586a-6a8f-d3ed-e257e9a5f6c7",
        "identifier": [
          {
            "system": "urn:ietf:rfc:3986",
            "value": "urn:uuid:776e05ab-01e9-4c0b-88ca-31a6d9b24a9a"
          }
        ],
        "status": "final",
        "code": {
          "coding": [
            {
              "code": "787-2",
              "system": "http://loinc.org"
            }
          ]
        },
        "subject": {
          "reference": "Patient/08aa51f0-4e02-4d29-8210-cf0dc558100b"
        },
        "result": [
          {
            "reference": "Observation/a383999e-d5a1-8a4b-2814-29eac3d9ae90"
          }
        ],
        "meta": {
          "source": [
            "ecr"
          ]
        }
      },
      "request": {
        "method": "PUT",
        "url": "DiagnosticReport/820e27b1-586a-6a8f-d3ed-e257e9a5f6c7"
      }
    },
    {
      "fullUrl": "urn:uuid:a383999e-d5a1-8a4b-2814-29eac3d9ae90",
      "resource": {
        "resourceType": "Observation",
        "id": "a383999e-d5a1-8a4b-2814-29eac3d9ae90",
        "meta": {
          "profile": [
            "http://hl7.org/fhir/us/core/StructureDefinition/us-core-observationresults"
          ],
          "source": [
            "ecr"
          ]
        },
        "identifier": [
          {
            "system": "urn:oid:2.16.840.1.113883",
            "value": "https://fhir-ehr.cerner.com/r4/da0b5d99-573c-4f5e-aaf6-8d39fa93d033/Observation/M-19269505770/_history/1"
          }
        ],
        "category": [
          {
            "coding": [
              {
                "system": "http://terminology.hl7.org/CodeSystem/observation-category",
                "code": "laboratory"
              }
            ]
          }
        ],
        "status": "final",
        "code": {
          "coding": [
            {
              "code": "787-2",
              "system": "http://loinc.org"
            }
          ]
        },
        "effectiveDateTime": "2022-04-13T09:46:00Z",
        "valueQuantity": {
          "value": 72.3,
          "unit": "Femtoliters"
        },
        "interpretation": [
          {
            "coding": [
              {
                "code": "L",
                "display": "Low",
                "system": "http://terminology.hl7.org/CodeSystem/v3-ObservationInterpretation"
              }
            ]
          }
        ],
        "subject": {
          "reference": "Patient/08aa51f0-4e02-4d29-8210-cf0dc558100b"
        }
      },
      "request": {
        "method": "PUT",
        "url": "Observation/a383999e-d5a1-8a4b-2814-29eac3d9ae90"
      }
    },
    {
      "fullUrl": "urn:uuid:138260ba-f0cf-f9bb-e96d-bfa024342274",
      "resource": {
        "resourceType": "DiagnosticReport",
        "id": "138260ba-f0cf-f9bb-e96d-bfa024342274",
        "identifier": [
          {
            "system": "urn:ietf:rfc:3986",
            "value": "urn:uuid:d8642982-995c-4dda-9a8a-4a95f4e5f0a7"
          }
        ],
        "status": "final",
        "code": {
          "coding": [
            {
              "code": "786-4",
              "system": "http://loinc.org"
            }
          ]
        },
        "subject": {
          "reference": "Patient/08aa51f0-4e02-4d29-8210-cf0dc558100b"
        },
        "result": [
          {
            "reference": "Observation/d50a4848-45d3-1623-cd42-3650d1d4612b"
          }
        ],
        "meta": {
          "source": [
            "ecr"
          ]
        }
      },
      "request": {
        "method": "PUT",
        "url": "DiagnosticReport/138260ba-f0cf-f9bb-e96d-bfa024342274"
      }
    },
    {
      "fullUrl": "urn:uuid:d50a4848-45d3-1623-cd42-3650d1d4612b",
      "resource": {
        "resourceType": "Observation",
        "id": "d50a4848-45d3-1623-cd42-3650d1d4612b",
        "meta": {
          "profile": [
            "http://hl7.org/fhir/us/core/StructureDefinition/us-core-observationresults"
          ],
          "source": [
            "ecr"
          ]
        },
        "identifier": [
          {
            "system": "urn:oid:2.16.840.1.113883",
            "value": "https://fhir-ehr.cerner.com/r4/da0b5d99-573c-4f5e-aaf6-8d39fa93d033/Observation/M-19269505774/_history/1"
          }
        ],
        "category": [
          {
            "coding": [
              {
                "system": "http://terminology.hl7.org/CodeSystem/observation-category",
                "code": "laboratory"
              }
            ]
          }
        ],
        "status": "final",
        "code": {
          "coding": [
            {
              "code": "786-4",
              "system": "http://loinc.org"
            }
          ]
        },
        "effectiveDateTime": "2022-04-13T09:46:00Z",
        "valueQuantity": {
          "value": 30.4,
          "unit": "gm/dL"
        },
        "interpretation": [
          {
            "coding": [
              {
                "code": "L",
                "display": "Low",
                "system": "http://terminology.hl7.org/CodeSystem/v3-ObservationInterpretation"
              }
            ]
          }
        ],
        "subject": {
          "reference": "Patient/08aa51f0-4e02-4d29-8210-cf0dc558100b"
        }
      },
      "request": {
        "method": "PUT",
        "url": "Observation/d50a4848-45d3-1623-cd42-3650d1d4612b"
      }
    },
    {
      "fullUrl": "urn:uuid:2dc19ac5-4549-0b53-965a-2c18f4b9c336",
      "resource": {
        "resourceType": "DiagnosticReport",
        "id": "2dc19ac5-4549-0b53-965a-2c18f4b9c336",
        "identifier": [
          {
            "system": "urn:ietf:rfc:3986",
            "value": "urn:uuid:892b5d40-9778-4f04-ab9a-44aac4236976"
          }
        ],
        "status": "final",
        "code": {
          "coding": [
            {
              "code": "785-6",
              "system": "http://loinc.org"
            }
          ]
        },
        "subject": {
          "reference": "Patient/08aa51f0-4e02-4d29-8210-cf0dc558100b"
        },
        "result": [
          {
            "reference": "Observation/296a5c8a-9cc8-bb01-2c2c-95b2ce85e370"
          }
        ],
        "meta": {
          "source": [
            "ecr"
          ]
        }
      },
      "request": {
        "method": "PUT",
        "url": "DiagnosticReport/2dc19ac5-4549-0b53-965a-2c18f4b9c336"
      }
    },
    {
      "fullUrl": "urn:uuid:296a5c8a-9cc8-bb01-2c2c-95b2ce85e370",
      "resource": {
        "resourceType": "Observation",
        "id": "296a5c8a-9cc8-bb01-2c2c-95b2ce85e370",
        "meta": {
          "profile": [
            "http://hl7.org/fhir/us/core/StructureDefinition/us-core-observationresults"
          ],
          "source": [
            "ecr"
          ]
        },
        "identifier": [
          {
            "system": "urn:oid:2.16.840.1.113883",
            "value": "https://fhir-ehr.cerner.com/r4/da0b5d99-573c-4f5e-aaf6-8d39fa93d033/Observation/M-19269505772/_history/1"
          }
        ],
        "category": [
          {
            "coding": [
              {
                "system": "http://terminology.hl7.org/CodeSystem/observation-category",
                "code": "laboratory"
              }
            ]
          }
        ],
        "status": "final",
        "code": {
          "coding": [
            {
              "code": "785-6",
              "system": "http://loinc.org"
            }
          ]
        },
        "effectiveDateTime": "2022-04-13T09:46:00Z",
        "valueQuantity": {
          "value": 22.0,
          "unit": "pg"
        },
        "interpretation": [
          {
            "coding": [
              {
                "code": "L",
                "display": "Low",
                "system": "http://terminology.hl7.org/CodeSystem/v3-ObservationInterpretation"
              }
            ]
          }
        ],
        "subject": {
          "reference": "Patient/08aa51f0-4e02-4d29-8210-cf0dc558100b"
        }
      },
      "request": {
        "method": "PUT",
        "url": "Observation/296a5c8a-9cc8-bb01-2c2c-95b2ce85e370"
      }
    },
    {
      "fullUrl": "urn:uuid:9088eb51-24f8-5e99-5c68-92f8720f8958",
      "resource": {
        "resourceType": "DiagnosticReport",
        "id": "9088eb51-24f8-5e99-5c68-92f8720f8958",
        "identifier": [
          {
            "system": "urn:ietf:rfc:3986",
            "value": "urn:uuid:0fd23b8d-99a1-4540-b96a-132a5187f038"
          }
        ],
        "status": "final",
        "code": {
          "coding": [
            {
              "code": "718-7",
              "system": "http://loinc.org"
            }
          ]
        },
        "subject": {
          "reference": "Patient/08aa51f0-4e02-4d29-8210-cf0dc558100b"
        },
        "result": [
          {
            "reference": "Observation/72de05c7-2954-7d58-9dab-1624f33706c2"
          }
        ],
        "meta": {
          "source": [
            "ecr"
          ]
        }
      },
      "request": {
        "method": "PUT",
        "url": "DiagnosticReport/9088eb51-24f8-5e99-5c68-92f8720f8958"
      }
    },
    {
      "fullUrl": "urn:uuid:72de05c7-2954-7d58-9dab-1624f33706c2",
      "resource": {
        "resourceType": "Observation",
        "id": "72de05c7-2954-7d58-9dab-1624f33706c2",
        "meta": {
          "profile": [
            "http://hl7.org/fhir/us/core/StructureDefinition/us-core-observationresults"
          ],
          "source": [
            "ecr"
          ]
        },
        "identifier": [
          {
            "system": "urn:oid:2.16.840.1.113883",
            "value": "https://fhir-ehr.cerner.com/r4/da0b5d99-573c-4f5e-aaf6-8d39fa93d033/Observation/M-19269505766/_history/1"
          }
        ],
        "category": [
          {
            "coding": [
              {
                "system": "http://terminology.hl7.org/CodeSystem/observation-category",
                "code": "laboratory"
              }
            ]
          }
        ],
        "status": "final",
        "code": {
          "coding": [
            {
              "code": "718-7",
              "system": "http://loinc.org"
            }
          ]
        },
        "effectiveDateTime": "2022-04-13T09:46:00Z",
        "valueQuantity": {
          "value": 11.9,
          "unit": "gm/dL"
        },
        "interpretation": [
          {
            "coding": [
              {
                "code": "L",
                "display": "Low",
                "system": "http://terminology.hl7.org/CodeSystem/v3-ObservationInterpretation"
              }
            ]
          }
        ],
        "subject": {
          "reference": "Patient/08aa51f0-4e02-4d29-8210-cf0dc558100b"
        }
      },
      "request": {
        "method": "PUT",
        "url": "Observation/72de05c7-2954-7d58-9dab-1624f33706c2"
      }
    },
    {
      "fullUrl": "urn:uuid:64a9eea7-f3a4-015e-1517-91b80c96992d",
      "resource": {
        "resourceType": "DiagnosticReport",
        "id": "64a9eea7-f3a4-015e-1517-91b80c96992d",
        "identifier": [
          {
            "system": "urn:ietf:rfc:3986",
            "value": "urn:uuid:79b13d2c-67fc-4c1f-a4d8-c4fc34cf74f8"
          }
        ],
        "status": "final",
        "code": {
          "coding": [
            {
              "code": "4544-3",
              "system": "http://loinc.org"
            }
          ]
        },
        "subject": {
          "reference": "Patient/08aa51f0-4e02-4d29-8210-cf0dc558100b"
        },
        "result": [
          {
            "reference": "Observation/3f1347a8-bb53-bd8f-3392-d8294447704b"
          }
        ],
        "meta": {
          "source": [
            "ecr"
          ]
        }
      },
      "request": {
        "method": "PUT",
        "url": "DiagnosticReport/64a9eea7-f3a4-015e-1517-91b80c96992d"
      }
    },
    {
      "fullUrl": "urn:uuid:3f1347a8-bb53-bd8f-3392-d8294447704b",
      "resource": {
        "resourceType": "Observation",
        "id": "3f1347a8-bb53-bd8f-3392-d8294447704b",
        "meta": {
          "profile": [
            "http://hl7.org/fhir/us/core/StructureDefinition/us-core-observationresults"
          ],
          "source": [
            "ecr"
          ]
        },
        "identifier": [
          {
            "system": "urn:oid:2.16.840.1.113883",
            "value": "https://fhir-ehr.cerner.com/r4/da0b5d99-573c-4f5e-aaf6-8d39fa93d033/Observation/M-19269505768/_history/1"
          }
        ],
        "category": [
          {
            "coding": [
              {
                "system": "http://terminology.hl7.org/CodeSystem/observation-category",
                "code": "laboratory"
              }
            ]
          }
        ],
        "status": "final",
        "code": {
          "coding": [
            {
              "code": "4544-3",
              "system": "http://loinc.org"
            }
          ]
        },
        "effectiveDateTime": "2022-04-13T09:46:00Z",
        "valueQuantity": {
          "value": 39.1,
          "unit": "%"
        },
        "interpretation": [
          {
            "coding": [
              {
                "code": "N",
                "display": "Normal",
                "system": "http://terminology.hl7.org/CodeSystem/v3-ObservationInterpretation"
              }
            ]
          }
        ],
        "subject": {
          "reference": "Patient/08aa51f0-4e02-4d29-8210-cf0dc558100b"
        }
      },
      "request": {
        "method": "PUT",
        "url": "Observation/3f1347a8-bb53-bd8f-3392-d8294447704b"
      }
    },
    {
      "fullUrl": "urn:uuid:3409b6a2-f032-73d3-2d63-0b1fb2b7d43e",
      "resource": {
        "resourceType": "DiagnosticReport",
        "id": "3409b6a2-f032-73d3-2d63-0b1fb2b7d43e",
        "identifier": [
          {
            "system": "urn:ietf:rfc:3986",
            "value": "urn:uuid:975dc103-6f64-4b2a-a82d-06373c3d903c"
          }
        ],
        "status": "final",
        "code": {
          "coding": [
            {
              "code": "2345-7",
              "system": "http://loinc.org"
            }
          ]
        },
        "subject": {
          "reference": "Patient/08aa51f0-4e02-4d29-8210-cf0dc558100b"
        },
        "result": [
          {
            "reference": "Observation/b72b60ad-c6db-db31-43c2-b348fdca03ac"
          }
        ],
        "meta": {
          "source": [
            "ecr"
          ]
        }
      },
      "request": {
        "method": "PUT",
        "url": "DiagnosticReport/3409b6a2-f032-73d3-2d63-0b1fb2b7d43e"
      }
    },
    {
      "fullUrl": "urn:uuid:b72b60ad-c6db-db31-43c2-b348fdca03ac",
      "resource": {
        "resourceType": "Observation",
        "id": "b72b60ad-c6db-db31-43c2-b348fdca03ac",
        "meta": {
          "profile": [
            "http://hl7.org/fhir/us/core/StructureDefinition/us-core-observationresults"
          ],
          "source": [
            "ecr"
          ]
        },
        "identifier": [
          {
            "system": "urn:oid:2.16.840.1.113883",
            "value": "https://fhir-ehr.cerner.com/r4/da0b5d99-573c-4f5e-aaf6-8d39fa93d033/Observation/M-19269550277/_history/1"
          }
        ],
        "category": [
          {
            "coding": [
              {
                "system": "http://terminology.hl7.org/CodeSystem/observation-category",
                "code": "laboratory"
              }
            ]
          }
        ],
        "status": "final",
        "code": {
          "coding": [
            {
              "code": "2345-7",
              "system": "http://loinc.org"
            }
          ]
        },
        "effectiveDateTime": "2022-04-13T09:46:00Z",
        "valueQuantity": {
          "value": 95,
          "unit": "mg/dL"
        },
        "interpretation": [
          {
            "coding": [
              {
                "code": "N",
                "display": "Normal",
                "system": "http://terminology.hl7.org/CodeSystem/v3-ObservationInterpretation"
              }
            ]
          }
        ],
        "subject": {
          "reference": "Patient/08aa51f0-4e02-4d29-8210-cf0dc558100b"
        }
      },
      "request": {
        "method": "PUT",
        "url": "Observation/b72b60ad-c6db-db31-43c2-b348fdca03ac"
      }
    },
    {
      "fullUrl": "urn:uuid:c3e188f5-cc54-ba82-acc9-71f4252b7fe5",
      "resource": {
        "resourceType": "DiagnosticReport",
        "id": "c3e188f5-cc54-ba82-acc9-71f4252b7fe5",
        "identifier": [
          {
            "system": "urn:ietf:rfc:3986",
            "value": "urn:uuid:c6518d7a-ca3f-4913-a5cd-ced62fe531be"
          }
        ],
        "status": "final",
        "code": {
          "coding": [
            {
              "code": "2028-9",
              "system": "http://loinc.org"
            }
          ]
        },
        "subject": {
          "reference": "Patient/08aa51f0-4e02-4d29-8210-cf0dc558100b"
        },
        "result": [
          {
            "reference": "Observation/f91e396d-9748-a828-db76-2c70b799c22f"
          }
        ],
        "meta": {
          "source": [
            "ecr"
          ]
        }
      },
      "request": {
        "method": "PUT",
        "url": "DiagnosticReport/c3e188f5-cc54-ba82-acc9-71f4252b7fe5"
      }
    },
    {
      "fullUrl": "urn:uuid:f91e396d-9748-a828-db76-2c70b799c22f",
      "resource": {
        "resourceType": "Observation",
        "id": "f91e396d-9748-a828-db76-2c70b799c22f",
        "meta": {
          "profile": [
            "http://hl7.org/fhir/us/core/StructureDefinition/us-core-observationresults"
          ],
          "source": [
            "ecr"
          ]
        },
        "identifier": [
          {
            "system": "urn:oid:2.16.840.1.113883",
            "value": "https://fhir-ehr.cerner.com/r4/da0b5d99-573c-4f5e-aaf6-8d39fa93d033/Observation/M-19269550267/_history/1"
          }
        ],
        "category": [
          {
            "coding": [
              {
                "system": "http://terminology.hl7.org/CodeSystem/observation-category",
                "code": "laboratory"
              }
            ]
          }
        ],
        "status": "final",
        "code": {
          "coding": [
            {
              "code": "2028-9",
              "system": "http://loinc.org"
            }
          ]
        },
        "effectiveDateTime": "2022-04-13T09:46:00Z",
        "valueQuantity": {
          "value": 29,
          "unit": "mmol/L"
        },
        "interpretation": [
          {
            "coding": [
              {
                "code": "N",
                "display": "Normal",
                "system": "http://terminology.hl7.org/CodeSystem/v3-ObservationInterpretation"
              }
            ]
          }
        ],
        "subject": {
          "reference": "Patient/08aa51f0-4e02-4d29-8210-cf0dc558100b"
        }
      },
      "request": {
        "method": "PUT",
        "url": "Observation/f91e396d-9748-a828-db76-2c70b799c22f"
      }
    },
    {
      "fullUrl": "urn:uuid:18a39ec1-3f46-670b-5d98-dff4d117779b",
      "resource": {
        "resourceType": "DiagnosticReport",
        "id": "18a39ec1-3f46-670b-5d98-dff4d117779b",
        "identifier": [
          {
            "system": "urn:ietf:rfc:3986",
            "value": "urn:uuid:703407cf-5a41-4c2c-8e32-f5bde1909c07"
          }
        ],
        "status": "final",
        "code": {
          "coding": [
            {
              "code": "1975-2",
              "system": "http://loinc.org"
            }
          ]
        },
        "subject": {
          "reference": "Patient/08aa51f0-4e02-4d29-8210-cf0dc558100b"
        },
        "result": [
          {
            "reference": "Observation/9572f82b-1d92-1745-4008-94529eadae37"
          }
        ],
        "meta": {
          "source": [
            "ecr"
          ]
        }
      },
      "request": {
        "method": "PUT",
        "url": "DiagnosticReport/18a39ec1-3f46-670b-5d98-dff4d117779b"
      }
    },
    {
      "fullUrl": "urn:uuid:9572f82b-1d92-1745-4008-94529eadae37",
      "resource": {
        "resourceType": "Observation",
        "id": "9572f82b-1d92-1745-4008-94529eadae37",
        "meta": {
          "profile": [
            "http://hl7.org/fhir/us/core/StructureDefinition/us-core-observationresults"
          ],
          "source": [
            "ecr"
          ]
        },
        "identifier": [
          {
            "system": "urn:oid:2.16.840.1.113883",
            "value": "https://fhir-ehr.cerner.com/r4/da0b5d99-573c-4f5e-aaf6-8d39fa93d033/Observation/M-19269550291/_history/1"
          }
        ],
        "category": [
          {
            "coding": [
              {
                "system": "http://terminology.hl7.org/CodeSystem/observation-category",
                "code": "laboratory"
              }
            ]
          }
        ],
        "status": "final",
        "code": {
          "coding": [
            {
              "code": "1975-2",
              "system": "http://loinc.org"
            }
          ]
        },
        "effectiveDateTime": "2022-04-13T09:46:00Z",
        "valueQuantity": {
          "value": 0.2,
          "unit": "mg/dL"
        },
        "interpretation": [
          {
            "coding": [
              {
                "code": "N",
                "display": "Normal",
                "system": "http://terminology.hl7.org/CodeSystem/v3-ObservationInterpretation"
              }
            ]
          }
        ],
        "subject": {
          "reference": "Patient/08aa51f0-4e02-4d29-8210-cf0dc558100b"
        }
      },
      "request": {
        "method": "PUT",
        "url": "Observation/9572f82b-1d92-1745-4008-94529eadae37"
      }
    },
    {
      "fullUrl": "urn:uuid:eb265fc1-9d01-697f-9e70-fe5000204fec",
      "resource": {
        "resourceType": "DiagnosticReport",
        "id": "eb265fc1-9d01-697f-9e70-fe5000204fec",
        "identifier": [
          {
            "system": "urn:ietf:rfc:3986",
            "value": "urn:uuid:51b41f7e-563e-4dc9-ae28-98786b410bf6"
          }
        ],
        "status": "final",
        "code": {
          "coding": [
            {
              "code": "1920-8",
              "system": "http://loinc.org"
            }
          ]
        },
        "subject": {
          "reference": "Patient/08aa51f0-4e02-4d29-8210-cf0dc558100b"
        },
        "result": [
          {
            "reference": "Observation/4116587b-88ba-f82b-cb00-de4680119556"
          }
        ],
        "meta": {
          "source": [
            "ecr"
          ]
        }
      },
      "request": {
        "method": "PUT",
        "url": "DiagnosticReport/eb265fc1-9d01-697f-9e70-fe5000204fec"
      }
    },
    {
      "fullUrl": "urn:uuid:4116587b-88ba-f82b-cb00-de4680119556",
      "resource": {
        "resourceType": "Observation",
        "id": "4116587b-88ba-f82b-cb00-de4680119556",
        "meta": {
          "profile": [
            "http://hl7.org/fhir/us/core/StructureDefinition/us-core-observationresults"
          ],
          "source": [
            "ecr"
          ]
        },
        "identifier": [
          {
            "system": "urn:oid:2.16.840.1.113883",
            "value": "https://fhir-ehr.cerner.com/r4/da0b5d99-573c-4f5e-aaf6-8d39fa93d033/Observation/M-19269550285/_history/1"
          }
        ],
        "category": [
          {
            "coding": [
              {
                "system": "http://terminology.hl7.org/CodeSystem/observation-category",
                "code": "laboratory"
              }
            ]
          }
        ],
        "status": "final",
        "code": {
          "coding": [
            {
              "code": "1920-8",
              "system": "http://loinc.org"
            }
          ]
        },
        "effectiveDateTime": "2022-04-13T09:46:00Z",
        "valueQuantity": {
          "value": 20,
          "unit": "units/L"
        },
        "interpretation": [
          {
            "coding": [
              {
                "code": "N",
                "display": "Normal",
                "system": "http://terminology.hl7.org/CodeSystem/v3-ObservationInterpretation"
              }
            ]
          }
        ],
        "subject": {
          "reference": "Patient/08aa51f0-4e02-4d29-8210-cf0dc558100b"
        }
      },
      "request": {
        "method": "PUT",
        "url": "Observation/4116587b-88ba-f82b-cb00-de4680119556"
      }
    },
    {
      "fullUrl": "urn:uuid:8137a3cc-578b-d9f8-be6c-cc4f58b3426b",
      "resource": {
        "resourceType": "DiagnosticReport",
        "id": "8137a3cc-578b-d9f8-be6c-cc4f58b3426b",
        "identifier": [
          {
            "system": "urn:ietf:rfc:3986",
            "value": "urn:uuid:0b0fff8c-74ce-482d-b184-373979e53baa"
          }
        ],
        "status": "final",
        "code": {
          "coding": [
            {
              "code": "1742-6",
              "system": "http://loinc.org"
            }
          ]
        },
        "subject": {
          "reference": "Patient/08aa51f0-4e02-4d29-8210-cf0dc558100b"
        },
        "result": [
          {
            "reference": "Observation/12a04fcc-3fe7-a05e-d41a-b066d679a37b"
          }
        ],
        "meta": {
          "source": [
            "ecr"
          ]
        }
      },
      "request": {
        "method": "PUT",
        "url": "DiagnosticReport/8137a3cc-578b-d9f8-be6c-cc4f58b3426b"
      }
    },
    {
      "fullUrl": "urn:uuid:12a04fcc-3fe7-a05e-d41a-b066d679a37b",
      "resource": {
        "resourceType": "Observation",
        "id": "12a04fcc-3fe7-a05e-d41a-b066d679a37b",
        "meta": {
          "profile": [
            "http://hl7.org/fhir/us/core/StructureDefinition/us-core-observationresults"
          ],
          "source": [
            "ecr"
          ]
        },
        "identifier": [
          {
            "system": "urn:oid:2.16.840.1.113883",
            "value": "https://fhir-ehr.cerner.com/r4/da0b5d99-573c-4f5e-aaf6-8d39fa93d033/Observation/M-19269550283/_history/1"
          }
        ],
        "category": [
          {
            "coding": [
              {
                "system": "http://terminology.hl7.org/CodeSystem/observation-category",
                "code": "laboratory"
              }
            ]
          }
        ],
        "status": "final",
        "code": {
          "coding": [
            {
              "code": "1742-6",
              "system": "http://loinc.org"
            }
          ]
        },
        "effectiveDateTime": "2022-04-13T09:46:00Z",
        "valueQuantity": {
          "value": 26,
          "unit": "units/L"
        },
        "interpretation": [
          {
            "coding": [
              {
                "code": "N",
                "display": "Normal",
                "system": "http://terminology.hl7.org/CodeSystem/v3-ObservationInterpretation"
              }
            ]
          }
        ],
        "subject": {
          "reference": "Patient/08aa51f0-4e02-4d29-8210-cf0dc558100b"
        }
      },
      "request": {
        "method": "PUT",
        "url": "Observation/12a04fcc-3fe7-a05e-d41a-b066d679a37b"
      }
    },
    {
      "fullUrl": "urn:uuid:c4b78513-2224-1126-a002-6b5f948777c4",
      "resource": {
        "resourceType": "DiagnosticReport",
        "id": "c4b78513-2224-1126-a002-6b5f948777c4",
        "identifier": [
          {
            "system": "urn:ietf:rfc:3986",
            "value": "urn:uuid:c54237aa-90ee-4bf9-8792-502fd8e27866"
          }
        ],
        "status": "final",
        "code": {
          "coding": [
            {
              "code": "6768-6",
              "system": "http://loinc.org"
            }
          ]
        },
        "subject": {
          "reference": "Patient/08aa51f0-4e02-4d29-8210-cf0dc558100b"
        },
        "result": [
          {
            "reference": "Observation/0be25ccc-24ae-3e09-e44b-8413103ce141"
          }
        ],
        "meta": {
          "source": [
            "ecr"
          ]
        }
      },
      "request": {
        "method": "PUT",
        "url": "DiagnosticReport/c4b78513-2224-1126-a002-6b5f948777c4"
      }
    },
    {
      "fullUrl": "urn:uuid:0be25ccc-24ae-3e09-e44b-8413103ce141",
      "resource": {
        "resourceType": "Observation",
        "id": "0be25ccc-24ae-3e09-e44b-8413103ce141",
        "meta": {
          "profile": [
            "http://hl7.org/fhir/us/core/StructureDefinition/us-core-observationresults"
          ],
          "source": [
            "ecr"
          ]
        },
        "identifier": [
          {
            "system": "urn:oid:2.16.840.1.113883",
            "value": "https://fhir-ehr.cerner.com/r4/da0b5d99-573c-4f5e-aaf6-8d39fa93d033/Observation/M-19269550289/_history/1"
          }
        ],
        "category": [
          {
            "coding": [
              {
                "system": "http://terminology.hl7.org/CodeSystem/observation-category",
                "code": "laboratory"
              }
            ]
          }
        ],
        "status": "final",
        "code": {
          "coding": [
            {
              "code": "6768-6",
              "system": "http://loinc.org"
            }
          ]
        },
        "effectiveDateTime": "2022-04-13T09:46:00Z",
        "valueQuantity": {
          "value": 74,
          "unit": "units/L"
        },
        "interpretation": [
          {
            "coding": [
              {
                "code": "N",
                "display": "Normal",
                "system": "http://terminology.hl7.org/CodeSystem/v3-ObservationInterpretation"
              }
            ]
          }
        ],
        "subject": {
          "reference": "Patient/08aa51f0-4e02-4d29-8210-cf0dc558100b"
        }
      },
      "request": {
        "method": "PUT",
        "url": "Observation/0be25ccc-24ae-3e09-e44b-8413103ce141"
      }
    },
    {
      "fullUrl": "urn:uuid:027a7b09-500d-af66-dd38-0a42219390dc",
      "resource": {
        "resourceType": "DiagnosticReport",
        "id": "027a7b09-500d-af66-dd38-0a42219390dc",
        "identifier": [
          {
            "system": "urn:ietf:rfc:3986",
            "value": "urn:uuid:13b26059-482c-42bb-b5be-091a78788c44"
          }
        ],
        "status": "final",
        "code": {
          "coding": [
            {
              "code": "18309-5",
              "system": "http://loinc.org"
            }
          ]
        },
        "subject": {
          "reference": "Patient/08aa51f0-4e02-4d29-8210-cf0dc558100b"
        },
        "result": [
          {
            "reference": "Observation/c68874a7-ef3b-6e53-0e79-ec6f0aff327e"
          }
        ],
        "meta": {
          "source": [
            "ecr"
          ]
        }
      },
      "request": {
        "method": "PUT",
        "url": "DiagnosticReport/027a7b09-500d-af66-dd38-0a42219390dc"
      }
    },
    {
      "fullUrl": "urn:uuid:c68874a7-ef3b-6e53-0e79-ec6f0aff327e",
      "resource": {
        "resourceType": "Observation",
        "id": "c68874a7-ef3b-6e53-0e79-ec6f0aff327e",
        "meta": {
          "profile": [
            "http://hl7.org/fhir/us/core/StructureDefinition/us-core-observationresults"
          ],
          "source": [
            "ecr"
          ]
        },
        "identifier": [
          {
            "system": "urn:oid:2.16.840.1.113883",
            "value": "https://fhir-ehr.cerner.com/r4/da0b5d99-573c-4f5e-aaf6-8d39fa93d033/Observation/M-19269505786/_history/1"
          }
        ],
        "category": [
          {
            "coding": [
              {
                "system": "http://terminology.hl7.org/CodeSystem/observation-category",
                "code": "laboratory"
              }
            ]
          }
        ],
        "status": "final",
        "code": {
          "coding": [
            {
              "code": "18309-5",
              "system": "http://loinc.org"
            }
          ]
        },
        "effectiveDateTime": "2022-04-13T09:46:00Z",
        "valueQuantity": {
          "value": 0.1,
          "unit": "/100 WBC"
        },
        "interpretation": [
          {
            "coding": [
              {
                "code": "N",
                "display": "Normal",
                "system": "http://terminology.hl7.org/CodeSystem/v3-ObservationInterpretation"
              }
            ]
          }
        ],
        "subject": {
          "reference": "Patient/08aa51f0-4e02-4d29-8210-cf0dc558100b"
        }
      },
      "request": {
        "method": "PUT",
        "url": "Observation/c68874a7-ef3b-6e53-0e79-ec6f0aff327e"
      }
    },
    {
      "fullUrl": "urn:uuid:cfd843ab-d9ca-c275-9fff-080dd933fefd",
      "resource": {
        "resourceType": "DiagnosticReport",
        "id": "cfd843ab-d9ca-c275-9fff-080dd933fefd",
        "identifier": [
          {
            "system": "urn:ietf:rfc:3986",
            "value": "urn:uuid:fb2f2996-75ad-4969-a86c-fd656165b463"
          }
        ],
        "status": "final",
        "code": {
          "coding": [
            {
              "code": "3097-3",
              "system": "http://loinc.org"
            }
          ]
        },
        "subject": {
          "reference": "Patient/08aa51f0-4e02-4d29-8210-cf0dc558100b"
        },
        "result": [
          {
            "reference": "Observation/94d912c1-8f4e-c6b0-e116-ad22cdbcb2cd"
          }
        ],
        "meta": {
          "source": [
            "ecr"
          ]
        }
      },
      "request": {
        "method": "PUT",
        "url": "DiagnosticReport/cfd843ab-d9ca-c275-9fff-080dd933fefd"
      }
    },
    {
      "fullUrl": "urn:uuid:94d912c1-8f4e-c6b0-e116-ad22cdbcb2cd",
      "resource": {
        "resourceType": "Observation",
        "id": "94d912c1-8f4e-c6b0-e116-ad22cdbcb2cd",
        "meta": {
          "profile": [
            "http://hl7.org/fhir/us/core/StructureDefinition/us-core-observationresults"
          ],
          "source": [
            "ecr"
          ]
        },
        "identifier": [
          {
            "system": "urn:oid:2.16.840.1.113883",
            "value": "https://fhir-ehr.cerner.com/r4/da0b5d99-573c-4f5e-aaf6-8d39fa93d033/Observation/M-19269550297/_history/1"
          }
        ],
        "category": [
          {
            "coding": [
              {
                "system": "http://terminology.hl7.org/CodeSystem/observation-category",
                "code": "laboratory"
              }
            ]
          }
        ],
        "status": "final",
        "code": {
          "coding": [
            {
              "code": "3097-3",
              "system": "http://loinc.org"
            }
          ]
        },
        "effectiveDateTime": "2022-04-13T09:46:00Z",
        "valueQuantity": {
          "value": 23,
          "unit": "null"
        },
        "interpretation": [
          {
            "coding": [
              {
                "code": "H",
                "display": "High",
                "system": "http://terminology.hl7.org/CodeSystem/v3-ObservationInterpretation"
              }
            ]
          }
        ],
        "subject": {
          "reference": "Patient/08aa51f0-4e02-4d29-8210-cf0dc558100b"
        }
      },
      "request": {
        "method": "PUT",
        "url": "Observation/94d912c1-8f4e-c6b0-e116-ad22cdbcb2cd"
      }
    },
    {
      "fullUrl": "urn:uuid:139ac3a3-cb54-74ea-30b3-37028e174cb9",
      "resource": {
        "resourceType": "DiagnosticReport",
        "id": "139ac3a3-cb54-74ea-30b3-37028e174cb9",
        "identifier": [
          {
            "system": "urn:ietf:rfc:3986",
            "value": "urn:uuid:effa5c21-d5f4-4d68-8da2-c4b8653bd13d"
          }
        ],
        "status": "final",
        "code": {
          "coding": [
            {
              "code": "6301-6",
              "system": "http://loinc.org"
            }
          ]
        },
        "subject": {
          "reference": "Patient/08aa51f0-4e02-4d29-8210-cf0dc558100b"
        },
        "result": [
          {
            "reference": "Observation/920a3576-b48f-31ae-2b71-73c765a7c9e0"
          }
        ],
        "meta": {
          "source": [
            "ecr"
          ]
        }
      },
      "request": {
        "method": "PUT",
        "url": "DiagnosticReport/139ac3a3-cb54-74ea-30b3-37028e174cb9"
      }
    },
    {
      "fullUrl": "urn:uuid:920a3576-b48f-31ae-2b71-73c765a7c9e0",
      "resource": {
        "resourceType": "Observation",
        "id": "920a3576-b48f-31ae-2b71-73c765a7c9e0",
        "meta": {
          "profile": [
            "http://hl7.org/fhir/us/core/StructureDefinition/us-core-observationresults"
          ],
          "source": [
            "ecr"
          ]
        },
        "identifier": [
          {
            "system": "urn:oid:2.16.840.1.113883",
            "value": "https://fhir-ehr.cerner.com/r4/da0b5d99-573c-4f5e-aaf6-8d39fa93d033/Observation/M-19269623611/_history/1"
          }
        ],
        "category": [
          {
            "coding": [
              {
                "system": "http://terminology.hl7.org/CodeSystem/observation-category",
                "code": "laboratory"
              }
            ]
          }
        ],
        "status": "final",
        "code": {
          "coding": [
            {
              "code": "6301-6",
              "system": "http://loinc.org"
            }
          ]
        },
        "effectiveDateTime": "2022-04-13T09:46:00Z",
        "valueQuantity": {
          "value": 1.0,
          "unit": "null"
        },
        "interpretation": [
          {
            "coding": [
              {
                "code": "N",
                "display": "Normal",
                "system": "http://terminology.hl7.org/CodeSystem/v3-ObservationInterpretation"
              }
            ]
          }
        ],
        "subject": {
          "reference": "Patient/08aa51f0-4e02-4d29-8210-cf0dc558100b"
        }
      },
      "request": {
        "method": "PUT",
        "url": "Observation/920a3576-b48f-31ae-2b71-73c765a7c9e0"
      }
    },
    {
      "fullUrl": "urn:uuid:14875bdf-4f51-35a3-4ef6-8faa50abf8a0",
      "resource": {
        "resourceType": "DiagnosticReport",
        "id": "14875bdf-4f51-35a3-4ef6-8faa50abf8a0",
        "identifier": [
          {
            "system": "urn:ietf:rfc:3986",
            "value": "urn:uuid:d9735ef4-31b1-4d94-b312-d02aba55c58f"
          }
        ],
        "status": "final",
        "code": {
          "coding": [
            {
              "code": "1863-0",
              "system": "http://loinc.org"
            }
          ]
        },
        "subject": {
          "reference": "Patient/08aa51f0-4e02-4d29-8210-cf0dc558100b"
        },
        "result": [
          {
            "reference": "Observation/235dd3a8-f756-89eb-8d3d-d85ea0ab21c8"
          }
        ],
        "meta": {
          "source": [
            "ecr"
          ]
        }
      },
      "request": {
        "method": "PUT",
        "url": "DiagnosticReport/14875bdf-4f51-35a3-4ef6-8faa50abf8a0"
      }
    },
    {
      "fullUrl": "urn:uuid:235dd3a8-f756-89eb-8d3d-d85ea0ab21c8",
      "resource": {
        "resourceType": "Observation",
        "id": "235dd3a8-f756-89eb-8d3d-d85ea0ab21c8",
        "meta": {
          "profile": [
            "http://hl7.org/fhir/us/core/StructureDefinition/us-core-observationresults"
          ],
          "source": [
            "ecr"
          ]
        },
        "identifier": [
          {
            "system": "urn:oid:2.16.840.1.113883",
            "value": "https://fhir-ehr.cerner.com/r4/da0b5d99-573c-4f5e-aaf6-8d39fa93d033/Observation/M-19269550293/_history/1"
          }
        ],
        "category": [
          {
            "coding": [
              {
                "system": "http://terminology.hl7.org/CodeSystem/observation-category",
                "code": "laboratory"
              }
            ]
          }
        ],
        "status": "final",
        "code": {
          "coding": [
            {
              "code": "1863-0",
              "system": "http://loinc.org"
            }
          ]
        },
        "effectiveDateTime": "2022-04-13T09:46:00Z",
        "valueQuantity": {
          "value": 3,
          "unit": "mmol/L"
        },
        "interpretation": [
          {
            "coding": [
              {
                "code": "L",
                "display": "Low",
                "system": "http://terminology.hl7.org/CodeSystem/v3-ObservationInterpretation"
              }
            ]
          }
        ],
        "subject": {
          "reference": "Patient/08aa51f0-4e02-4d29-8210-cf0dc558100b"
        }
      },
      "request": {
        "method": "PUT",
        "url": "Observation/235dd3a8-f756-89eb-8d3d-d85ea0ab21c8"
      }
    },
    {
      "fullUrl": "urn:uuid:35fe362e-4ba3-b282-3ac7-a81a7e74f1bd",
      "resource": {
        "resourceType": "DiagnosticReport",
        "id": "35fe362e-4ba3-b282-3ac7-a81a7e74f1bd",
        "identifier": [
          {
            "system": "urn:ietf:rfc:3986",
            "value": "urn:uuid:f3313b6f-4d28-49a3-b260-e5724fa2e6ba"
          }
        ],
        "status": "final",
        "code": {
          "coding": [
            {
              "code": "2160-0",
              "system": "http://loinc.org"
            }
          ]
        },
        "subject": {
          "reference": "Patient/08aa51f0-4e02-4d29-8210-cf0dc558100b"
        },
        "result": [
          {
            "reference": "Observation/05b611f6-8c46-5e19-6bb0-5fb1708b2449"
          }
        ],
        "meta": {
          "source": [
            "ecr"
          ]
        }
      },
      "request": {
        "method": "PUT",
        "url": "DiagnosticReport/35fe362e-4ba3-b282-3ac7-a81a7e74f1bd"
      }
    },
    {
      "fullUrl": "urn:uuid:05b611f6-8c46-5e19-6bb0-5fb1708b2449",
      "resource": {
        "resourceType": "Observation",
        "id": "05b611f6-8c46-5e19-6bb0-5fb1708b2449",
        "meta": {
          "profile": [
            "http://hl7.org/fhir/us/core/StructureDefinition/us-core-observationresults"
          ],
          "source": [
            "ecr"
          ]
        },
        "identifier": [
          {
            "system": "urn:oid:2.16.840.1.113883",
            "value": "https://fhir-ehr.cerner.com/r4/da0b5d99-573c-4f5e-aaf6-8d39fa93d033/Observation/M-19269550273/_history/1"
          }
        ],
        "category": [
          {
            "coding": [
              {
                "system": "http://terminology.hl7.org/CodeSystem/observation-category",
                "code": "laboratory"
              }
            ]
          }
        ],
        "status": "final",
        "code": {
          "coding": [
            {
              "code": "2160-0",
              "system": "http://loinc.org"
            }
          ]
        },
        "effectiveDateTime": "2022-04-13T09:46:00Z",
        "valueQuantity": {
          "value": 1.01,
          "unit": "mg/dL"
        },
        "interpretation": [
          {
            "coding": [
              {
                "code": "N",
                "display": "Normal",
                "system": "http://terminology.hl7.org/CodeSystem/v3-ObservationInterpretation"
              }
            ]
          }
        ],
        "subject": {
          "reference": "Patient/08aa51f0-4e02-4d29-8210-cf0dc558100b"
        }
      },
      "request": {
        "method": "PUT",
        "url": "Observation/05b611f6-8c46-5e19-6bb0-5fb1708b2449"
      }
    }
  ]
}
