{
  "resourceType": "Bundle",
  "type": "batch",
  "entry": [
    {
      "fullUrl": "urn:uuid:1.2.840.114350.1.13.297.3.7.8.688883.538441",
      "resource": {
        "resourceType": "Composition",
        "id": "1.2.840.114350.1.13.297.3.7.8.688883.538441",
        "meta": {
          "profile": [
            "http://hl7.org/fhir/us/ecr/StructureDefinition/eicr-composition"
          ],
          "source": [
            "ecr"
          ]
        },
        "identifier": [
          {
            "use": "official",
            "type": {
              "coding": [
                {
                  "code": "55751-2",
                  "display": "Initial Public Health Case Report",
                  "system": "http://loinc.org"
                }
              ]
            },
            "value": "7a89f990-3f70-11ed-9549-c301d81100b2",
            "assigner": {
              "display": "EPC"
            }
          }
        ],
        "extension": [
          {
            "url": "http://hl7.org/fhir/StructureDefinition/composition-clinicaldocument-versionNumber",
            "valueString": "15"
          }
        ],
        "status": "final",
        "type": {
          "coding": [
            {
              "code": "55751-2",
              "display": "Initial Public Health Case Report",
              "system": "http://loinc.org"
            }
          ]
        },
        "date": "2022-09-28T14:01:01-07:00",
        "title": "Initial Public Health Case Report",
        "confidentiality": "N",
        "section": [
          {
            "id": "6d477942-5761-6b2c-f5fc-bdf036a1fe7e",
            "title": "Miscellaneous Notes",
            "text": {
              "status": "generated",
              "div": "Not on file documented in this encounter"
            },
            "code": {
              "coding": [
                {
                  "code": "10164-2",
                  "display": "HISTORY OF PRESENT ILLNESS",
                  "system": "http://loinc.org"
                }
              ]
            },
            "mode": "snapshot"
          },
          {
            "id": "A84C7F7E-3F70-11ED-9549-C301D81100B2",
            "title": "Immunizations",
            "text": {
              "status": "generated",
              "div": "<table><thead><tr><th>Name</th><th>Administration Dates</th><th>Next Due</th></tr></thead><tbody><tr><td>DTAP-HIB-IPV (PENTACEL)</td><td>04/16/2010</td><td></td></tr><tr><td>HEP A (ADULT) 2 DOSE</td><td>11/11/2011</td><td></td></tr><tr><td>HEP B (PED,ADOLESCENT) 3 DOSE</td><td>03/21/1974</td><td></td></tr><tr><td>MENINGOCOCCAL CONJUGATE,MENACTRA (PED/ADOL/ADULT)</td><td>11/16/2020</td><td></td></tr><tr><td>TDAP, (ADOL/ADULT)</td><td>11/10/2020</td><td></td></tr></tbody></table>documented as of this encounter"
            },
            "code": {
              "coding": [
                {
                  "code": "11369-6",
                  "display": "History of Immunization Narrative",
                  "system": "http://loinc.org"
                }
              ]
            },
            "mode": "snapshot"
          },
          {
            "id": "A853DBC0-3F70-11ED-9549-C301D81100B2",
            "title": "Administered Medications",
            "text": {
              "status": "generated",
              "div": "Not on file documented in this encounter"
            },
            "code": {
              "coding": [
                {
                  "code": "29549-3",
                  "display": "MEDICATIONS ADMINISTERED",
                  "system": "http://loinc.org"
                }
              ]
            },
            "mode": "snapshot"
          },
          {
            "id": "6d1df88a-f3cd-9182-f066-12c46b2c4e7c",
            "title": "Plan of Treatment",
            "text": {
              "status": "generated",
              "div": "Not on file documented as of this encounter"
            },
            "code": {
              "coding": [
                {
                  "code": "18776-5",
                  "display": "Plan of care note",
                  "system": "http://loinc.org"
                }
              ]
            },
            "mode": "snapshot"
          },
          {
            "id": "A8648114-3F70-11ED-9549-C301D81100B2",
            "title": "Problems",
            "text": {
              "status": "generated",
              "div": "<table><thead><tr><th>Active Problems</th><th>Noted Date</th></tr></thead><tbody><tr><td>Bipolar I disorder</td><td>11/19/20</td></tr><tr><td>Reactive depression</td><td>11/19/20</td></tr><tr><td>Rheumatoid arthritis with negative rheumatoid factor</td><td>11/16/20</td></tr><tr><td>Arthralgia of both ankles</td><td>11/16/20</td></tr><tr><td>Anxiety</td><td>11/10/20</td></tr><tr><td>Asthma</td><td>11/10/20</td></tr><tr><td>Knee pain</td><td>4/29/19</td></tr><tr><td>Sprain of calcaneofibular ligament of right ankle</td><td>4/16/19</td></tr><tr><td>Last Assessment & Plan: Formatting of this note might be different from the original. <br>This is my note about this problem. <br></td></tr></tbody></table>documented as of this encounter (statuses as of 09/28/2022)"
            },
            "code": {
              "coding": [
                {
                  "code": "11450-4",
                  "display": "Problem list - Reported",
                  "system": "http://loinc.org"
                }
              ]
            },
            "mode": "snapshot",
            "entry": [
              {
                "display": "Problem - Sprain of calcaneofibular ligament of right ankle",
                "reference": "Condition/fb4c40a4-602f-9cf0-11c0-903b1f3d9e94"
              },
              {
                "display": "Problem - Knee pain",
                "reference": "Condition/3f9a9eb2-f922-634e-c26f-78392130df06"
              },
              {
                "display": "Problem - Anxiety",
                "reference": "Condition/f64c32dd-26f5-383c-7f50-ca6ec3f463c0"
              },
              {
                "display": "Problem - Asthma",
                "reference": "Condition/5375a206-9dc9-92cf-2f48-6a5d46a47ef4"
              },
              {
                "display": "Problem - Rheumatoid arthritis with negative rheumatoid factor",
                "reference": "Condition/971021ee-126c-7d7f-0883-1a86d90514ed"
              },
              {
                "display": "Problem - Arthralgia of both ankles",
                "reference": "Condition/115026c9-25f8-0790-a139-274c4d50499a"
              },
              {
                "display": "Problem - Bipolar I disorder",
                "reference": "Condition/f3abd872-80c0-6c83-5135-a2343b415038"
              },
              {
                "display": "Problem - Reactive depression",
                "reference": "Condition/b8e04fe5-d35c-c8c5-af3f-64ea83195682"
              }
            ]
          },
          {
            "id": "bc4fa35c-b96e-3a71-cf37-37e4323e8ae2",
            "title": "Reason for Visit",
            "text": {
              "status": "generated",
              "div": "Not on file"
            },
            "code": {
              "coding": [
                {
                  "code": "29299-5",
                  "display": "REASON FOR VISIT",
                  "system": "http://loinc.org"
                }
              ]
            },
            "mode": "snapshot",
            "extension": [
              {
                "url": "http://hl7.org/fhir/cda/ccda/StructureDefinition/2.16.840.1.113883.10.20.22.2.12",
                "valueString": "Not on file"
              }
            ]
          },
          {
            "id": "A87B29AA-3F70-11ED-9549-C301D81100B2",
            "title": "Results",
            "text": {
              "status": "generated",
              "div": "<ul><li>Stool Pathogens, NAAT, 12 to 25 Targets (09/28/2022 1:51 PM PDT) <table><thead><tr><th>Component</th><th>Value</th><th>Ref Range</th><th>Test Method</th><th>Analysis Time</th><th>Performed At</th><th>Pathologist Signature</th></tr></thead><tbody><tr><td>Campylobacter, NAAT</td><td>Not Detected</td><td>Not Detected</td><td>LAB DEVICE: BIOFIRE® FILMARRAY® 2.0 SYSTEM</td><td>09/28/2022 1:59 PM PDT</td><td>PROVIDENCE ST. JOSEPH MEDICAL CENTER LABORATORY (CLIA 05D0672675)</td><td></td></tr><tr><td>Plesiomonas shigelloides, NAAT</td><td>Not Detected</td><td>Not Detected</td><td>LAB DEVICE: BIOFIRE® FILMARRAY® 2.0 SYSTEM</td><td>09/28/2022 1:59 PM PDT</td><td>PROVIDENCE ST. JOSEPH MEDICAL CENTER LABORATORY (CLIA 05D0672675)</td><td></td></tr><tr><td>Salmonella, NAAT</td><td>Not Detected</td><td>Not Detected</td><td>LAB DEVICE: BIOFIRE® FILMARRAY® 2.0 SYSTEM</td><td>09/28/2022 1:59 PM PDT</td><td>PROVIDENCE ST. JOSEPH MEDICAL CENTER LABORATORY (CLIA 05D0672675)</td><td></td></tr><tr><td>Vibrio, NAAT</td><td>Not Detected</td><td>Not Detected</td><td>LAB DEVICE: BIOFIRE® FILMARRAY® 2.0 SYSTEM</td><td>09/28/2022 1:59 PM PDT</td><td>PROVIDENCE ST. JOSEPH MEDICAL CENTER LABORATORY (CLIA 05D0672675)</td><td></td></tr><tr><td>Vibrio cholerae, NAAT</td><td>Not Detected</td><td>Not Detected</td><td>LAB DEVICE: BIOFIRE® FILMARRAY® 2.0 SYSTEM</td><td>09/28/2022 1:59 PM PDT</td><td>PROVIDENCE ST. JOSEPH MEDICAL CENTER LABORATORY (CLIA 05D0672675)</td><td></td></tr><tr><td>Yersinia enterocolitica, NAAT</td><td>Not Detected</td><td>Not Detected</td><td>LAB DEVICE: BIOFIRE® FILMARRAY® 2.0 SYSTEM</td><td>09/28/2022 1:59 PM PDT</td><td>PROVIDENCE ST. JOSEPH MEDICAL CENTER LABORATORY (CLIA 05D0672675)</td><td></td></tr><tr><td>E. Coli (EAEC), NAAT</td><td>Not Detected</td><td>Not Detected</td><td>LAB DEVICE: BIOFIRE® FILMARRAY® 2.0 SYSTEM</td><td>09/28/2022 1:59 PM PDT</td><td>PROVIDENCE ST. JOSEPH MEDICAL CENTER LABORATORY (CLIA 05D0672675)</td><td></td></tr><tr><td>E. Coli (EPEC), NAAT</td><td>Not Detected</td><td>Not Detected</td><td>LAB DEVICE: BIOFIRE® FILMARRAY® 2.0 SYSTEM</td><td>09/28/2022 1:59 PM PDT</td><td>PROVIDENCE ST. JOSEPH MEDICAL CENTER LABORATORY (CLIA 05D0672675)</td><td></td></tr><tr><td>E. Coli (ETEC), NAAT</td><td>Not Detected</td><td>Not Detected</td><td>LAB DEVICE: BIOFIRE® FILMARRAY® 2.0 SYSTEM</td><td>09/28/2022 1:59 PM PDT</td><td>PROVIDENCE ST. JOSEPH MEDICAL CENTER LABORATORY (CLIA 05D0672675)</td><td></td></tr><tr><td>Shiga-Like Toxin E. Coli (STEC), NAAT</td><td>Not Detected</td><td>Not Detected</td><td>LAB DEVICE: BIOFIRE® FILMARRAY® 2.0 SYSTEM</td><td>09/28/2022 1:59 PM PDT</td><td>PROVIDENCE ST. JOSEPH MEDICAL CENTER LABORATORY (CLIA 05D0672675)</td><td></td></tr><tr><td>Shigella/EIEC, NAAT</td><td>Not Detected</td><td>Not Detected</td><td>LAB DEVICE: BIOFIRE® FILMARRAY® 2.0 SYSTEM</td><td>09/28/2022 1:59 PM PDT</td><td>PROVIDENCE ST. JOSEPH MEDICAL CENTER LABORATORY (CLIA 05D0672675)</td><td></td></tr><tr><td>Cryptosporidium, NAAT</td><td>Not Detected</td><td>Not Detected</td><td>LAB DEVICE: BIOFIRE® FILMARRAY® 2.0 SYSTEM</td><td>09/28/2022 1:59 PM PDT</td><td>PROVIDENCE ST. JOSEPH MEDICAL CENTER LABORATORY (CLIA 05D0672675)</td><td></td></tr><tr><td>Cyclospora cayetanensis, NAAT</td><td>Not Detected</td><td>Not Detected</td><td>LAB DEVICE: BIOFIRE® FILMARRAY® 2.0 SYSTEM</td><td>09/28/2022 1:59 PM PDT</td><td>PROVIDENCE ST. JOSEPH MEDICAL CENTER LABORATORY (CLIA 05D0672675)</td><td></td></tr><tr><td>E. histolytica, NAAT</td><td>Not Detected</td><td>Not Detected</td><td>LAB DEVICE: BIOFIRE® FILMARRAY® 2.0 SYSTEM</td><td>09/28/2022 1:59 PM PDT</td><td>PROVIDENCE ST. JOSEPH MEDICAL CENTER LABORATORY (CLIA 05D0672675)</td><td></td></tr><tr><td>Giardia lamblia, NAAT</td><td>Not Detected</td><td>Not Detected</td><td>LAB DEVICE: BIOFIRE® FILMARRAY® 2.0 SYSTEM</td><td>09/28/2022 1:59 PM PDT</td><td>PROVIDENCE ST. JOSEPH MEDICAL CENTER LABORATORY (CLIA 05D0672675)</td><td></td></tr><tr><td>Adenovirus F 40/41, NAAT</td><td>Not Detected</td><td>Not Detected</td><td>LAB DEVICE: BIOFIRE® FILMARRAY® 2.0 SYSTEM</td><td>09/28/2022 1:59 PM PDT</td><td>PROVIDENCE ST. JOSEPH MEDICAL CENTER LABORATORY (CLIA 05D0672675)</td><td></td></tr><tr><td>Astrovirus, NAAT</td><td>Not Detected</td><td>Not Detected</td><td>LAB DEVICE: BIOFIRE® FILMARRAY® 2.0 SYSTEM</td><td>09/28/2022 1:59 PM PDT</td><td>PROVIDENCE ST. JOSEPH MEDICAL CENTER LABORATORY (CLIA 05D0672675)</td><td></td></tr><tr><td>Norovirus, NAAT</td><td>Not Detected</td><td>Not Detected</td><td>LAB DEVICE: BIOFIRE® FILMARRAY® 2.0 SYSTEM</td><td>09/28/2022 1:59 PM PDT</td><td>PROVIDENCE ST. JOSEPH MEDICAL CENTER LABORATORY (CLIA 05D0672675)</td><td></td></tr><tr><td>Rotavirus A, NAAT</td><td>Not Detected</td><td>Not Detected</td><td>LAB DEVICE: BIOFIRE® FILMARRAY® 2.0 SYSTEM</td><td>09/28/2022 1:59 PM PDT</td><td>PROVIDENCE ST. JOSEPH MEDICAL CENTER LABORATORY (CLIA 05D0672675)</td><td></td></tr><tr><td>Sapovirus, NAAT</td><td>Not Detected</td><td>Not Detected</td><td>LAB DEVICE: BIOFIRE® FILMARRAY® 2.0 SYSTEM</td><td>09/28/2022 1:59 PM PDT</td><td>PROVIDENCE ST. JOSEPH MEDICAL CENTER LABORATORY (CLIA 05D0672675)</td><td></td></tr></tbody></table><table><thead><tr><th>Specimen (Source)</th><th>Anatomical Location / Laterality</th><th>Collection Method / Volume</th><th>Collection Time</th><th>Received Time</th></tr></thead><tbody><tr><td>Stool</td><td>STOOL SPECIMEN / Unknown</td><td></td><td>09/28/2022 1:51 PM PDT</td><td>09/28/2022 1:51 PM PDT</td></tr></tbody></table><table><thead><tr><th>Authorizing Provider</th><th>Result Type</th></tr></thead><tbody><tr><td>Ambhp1 Test MD</td><td>MICROBIOLOGY - GENERAL ORDERABLES</td></tr></tbody></table><table><thead><tr><th>Performing Organization</th><th>Address</th><th>City/State/ZIP Code</th><th>Phone Number</th></tr></thead><tbody><tr><td>PROVIDENCE ST. JOSEPH MEDICAL CENTER LABORATORY (CLIA 05D0672675)</td><td>501 S. Buena Vista Street</td><td>Burbank, CA 91505</td><td>818-847-6000</td></tr></tbody></table></li><li>(ABNORMAL) Stool Pathogens, NAAT, 12 to 25 Targets (09/28/2022 1:51 PM PDT) <table><thead><tr><th>Component</th><th>Value</th><th>Ref Range</th><th>Test Method</th><th>Analysis Time</th><th>Performed At</th><th>Pathologist Signature</th></tr></thead><tbody><tr><td>Campylobacter, NAAT</td><td>Not Detected</td><td>Not Detected</td><td>LAB DEVICE: BIOFIRE® FILMARRAY® 2.0 SYSTEM</td><td>09/28/2022 2:00 PM PDT</td><td>PROVIDENCE ST. JOSEPH MEDICAL CENTER LABORATORY (CLIA 05D0672675)</td><td></td></tr><tr><td>Plesiomonas shigelloides, NAAT</td><td>Not Detected</td><td>Not Detected</td><td>LAB DEVICE: BIOFIRE® FILMARRAY® 2.0 SYSTEM</td><td>09/28/2022 2:00 PM PDT</td><td>PROVIDENCE ST. JOSEPH MEDICAL CENTER LABORATORY (CLIA 05D0672675)</td><td></td></tr><tr><td>Salmonella, NAAT</td><td>DETECTED (AA)</td><td>Not Detected</td><td>LAB DEVICE: BIOFIRE® FILMARRAY® 2.0 SYSTEM</td><td>09/28/2022 2:00 PM PDT</td><td>PROVIDENCE ST. JOSEPH MEDICAL CENTER LABORATORY (CLIA 05D0672675)</td><td></td></tr><tr><td>Vibrio, NAAT</td><td>Not Detected</td><td>Not Detected</td><td>LAB DEVICE: BIOFIRE® FILMARRAY® 2.0 SYSTEM</td><td>09/28/2022 2:00 PM PDT</td><td>PROVIDENCE ST. JOSEPH MEDICAL CENTER LABORATORY (CLIA 05D0672675)</td><td></td></tr><tr><td>Vibrio cholerae, NAAT</td><td>Not Detected</td><td>Not Detected</td><td>LAB DEVICE: BIOFIRE® FILMARRAY® 2.0 SYSTEM</td><td>09/28/2022 2:00 PM PDT</td><td>PROVIDENCE ST. JOSEPH MEDICAL CENTER LABORATORY (CLIA 05D0672675)</td><td></td></tr><tr><td>Yersinia enterocolitica, NAAT</td><td>Not Detected</td><td>Not Detected</td><td>LAB DEVICE: BIOFIRE® FILMARRAY® 2.0 SYSTEM</td><td>09/28/2022 2:00 PM PDT</td><td>PROVIDENCE ST. JOSEPH MEDICAL CENTER LABORATORY (CLIA 05D0672675)</td><td></td></tr><tr><td>E. Coli O157, NAAT</td><td>Not Detected</td><td>Not Detected</td><td>LAB DEVICE: BIOFIRE® FILMARRAY® 2.0 SYSTEM</td><td>09/28/2022 2:00 PM PDT</td><td>PROVIDENCE ST. JOSEPH MEDICAL CENTER LABORATORY (CLIA 05D0672675)</td><td></td></tr><tr><td>E. Coli (EAEC), NAAT</td><td>Not Detected</td><td>Not Detected</td><td>LAB DEVICE: BIOFIRE® FILMARRAY® 2.0 SYSTEM</td><td>09/28/2022 2:00 PM PDT</td><td>PROVIDENCE ST. JOSEPH MEDICAL CENTER LABORATORY (CLIA 05D0672675)</td><td></td></tr><tr><td>E. Coli (EPEC), NAAT</td><td>Not Detected</td><td>Not Detected</td><td>LAB DEVICE: BIOFIRE® FILMARRAY® 2.0 SYSTEM</td><td>09/28/2022 2:00 PM PDT</td><td>PROVIDENCE ST. JOSEPH MEDICAL CENTER LABORATORY (CLIA 05D0672675)</td><td></td></tr><tr><td>E. Coli (ETEC), NAAT</td><td>Not Detected</td><td>Not Detected</td><td>LAB DEVICE: BIOFIRE® FILMARRAY® 2.0 SYSTEM</td><td>09/28/2022 2:00 PM PDT</td><td>PROVIDENCE ST. JOSEPH MEDICAL CENTER LABORATORY (CLIA 05D0672675)</td><td></td></tr><tr><td>Shiga-Like Toxin E. Coli (STEC), NAAT</td><td>Not Detected</td><td>Not Detected</td><td>LAB DEVICE: BIOFIRE® FILMARRAY® 2.0 SYSTEM</td><td>09/28/2022 2:00 PM PDT</td><td>PROVIDENCE ST. JOSEPH MEDICAL CENTER LABORATORY (CLIA 05D0672675)</td><td></td></tr><tr><td>Shigella/EIEC, NAAT</td><td>DETECTED (AA)</td><td>Not Detected</td><td>LAB DEVICE: BIOFIRE® FILMARRAY® 2.0 SYSTEM</td><td>09/28/2022 2:00 PM PDT</td><td>PROVIDENCE ST. JOSEPH MEDICAL CENTER LABORATORY (CLIA 05D0672675)</td><td></td></tr><tr><td>Cryptosporidium, NAAT</td><td>Not Detected</td><td>Not Detected</td><td>LAB DEVICE: BIOFIRE® FILMARRAY® 2.0 SYSTEM</td><td>09/28/2022 2:00 PM PDT</td><td>PROVIDENCE ST. JOSEPH MEDICAL CENTER LABORATORY (CLIA 05D0672675)</td><td></td></tr><tr><td>Cyclospora cayetanensis, NAAT</td><td>Not Detected</td><td>Not Detected</td><td>LAB DEVICE: BIOFIRE® FILMARRAY® 2.0 SYSTEM</td><td>09/28/2022 2:00 PM PDT</td><td>PROVIDENCE ST. JOSEPH MEDICAL CENTER LABORATORY (CLIA 05D0672675)</td><td></td></tr><tr><td>E. histolytica, NAAT</td><td>Not Detected</td><td>Not Detected</td><td>LAB DEVICE: BIOFIRE® FILMARRAY® 2.0 SYSTEM</td><td>09/28/2022 2:00 PM PDT</td><td>PROVIDENCE ST. JOSEPH MEDICAL CENTER LABORATORY (CLIA 05D0672675)</td><td></td></tr><tr><td>Giardia lamblia, NAAT</td><td>Not Detected</td><td>Not Detected</td><td>LAB DEVICE: BIOFIRE® FILMARRAY® 2.0 SYSTEM</td><td>09/28/2022 2:00 PM PDT</td><td>PROVIDENCE ST. JOSEPH MEDICAL CENTER LABORATORY (CLIA 05D0672675)</td><td></td></tr><tr><td>Adenovirus F 40/41, NAAT</td><td>Not Detected</td><td>Not Detected</td><td>LAB DEVICE: BIOFIRE® FILMARRAY® 2.0 SYSTEM</td><td>09/28/2022 2:00 PM PDT</td><td>PROVIDENCE ST. JOSEPH MEDICAL CENTER LABORATORY (CLIA 05D0672675)</td><td></td></tr><tr><td>Astrovirus, NAAT</td><td>Not Detected</td><td>Not Detected</td><td>LAB DEVICE: BIOFIRE® FILMARRAY® 2.0 SYSTEM</td><td>09/28/2022 2:00 PM PDT</td><td>PROVIDENCE ST. JOSEPH MEDICAL CENTER LABORATORY (CLIA 05D0672675)</td><td></td></tr><tr><td>Norovirus, NAAT</td><td>Not Detected</td><td>Not Detected</td><td>LAB DEVICE: BIOFIRE® FILMARRAY® 2.0 SYSTEM</td><td>09/28/2022 2:00 PM PDT</td><td>PROVIDENCE ST. JOSEPH MEDICAL CENTER LABORATORY (CLIA 05D0672675)</td><td></td></tr><tr><td>Rotavirus A, NAAT</td><td>Not Detected</td><td>Not Detected</td><td>LAB DEVICE: BIOFIRE® FILMARRAY® 2.0 SYSTEM</td><td>09/28/2022 2:00 PM PDT</td><td>PROVIDENCE ST. JOSEPH MEDICAL CENTER LABORATORY (CLIA 05D0672675)</td><td></td></tr><tr><td>Sapovirus, NAAT</td><td>Not Detected</td><td>Not Detected</td><td>LAB DEVICE: BIOFIRE® FILMARRAY® 2.0 SYSTEM</td><td>09/28/2022 2:00 PM PDT</td><td>PROVIDENCE ST. JOSEPH MEDICAL CENTER LABORATORY (CLIA 05D0672675)</td><td></td></tr><tr><td>GI Pathogens Panel</td><td>Acceptable</td><td></td><td>LAB DEVICE: BIOFIRE® FILMARRAY® 2.0 SYSTEM</td><td>09/28/2022 2:00 PM PDT</td><td>PROVIDENCE ST. JOSEPH MEDICAL CENTER LABORATORY (CLIA 05D0672675)</td><td></td></tr></tbody></table><table><thead><tr><th>Specimen (Source)</th><th>Anatomical Location / Laterality</th><th>Collection Method / Volume</th><th>Collection Time</th><th>Received Time</th></tr></thead><tbody><tr><td>Stool</td><td>STOOL SPECIMEN / Unknown</td><td></td><td>09/28/2022 1:51 PM PDT</td><td>09/28/2022 1:51 PM PDT</td></tr></tbody></table><table><thead><tr><th>Authorizing Provider</th><th>Result Type</th></tr></thead><tbody><tr><td>Ambhp1 Test MD</td><td>MICROBIOLOGY - GENERAL ORDERABLES</td></tr></tbody></table><table><thead><tr><th>Performing Organization</th><th>Address</th><th>City/State/ZIP Code</th><th>Phone Number</th></tr></thead><tbody><tr><td>PROVIDENCE ST. JOSEPH MEDICAL CENTER LABORATORY (CLIA 05D0672675)</td><td>501 S. Buena Vista Street</td><td>Burbank, CA 91505</td><td>818-847-6000</td></tr></tbody></table></li></ul>documented in this encounter"
            },
            "code": {
              "coding": [
                {
                  "code": "30954-2",
                  "display": "Relevant diagnostic tests/laboratory data Narrative",
                  "system": "http://loinc.org"
                }
              ]
            },
            "mode": "snapshot",
            "entry": [
              {
                "display": "Campylobacter, NAAT",
                "reference": "Observation/1c0f3367-0588-c90e-fed0-0d8c15c5ac1b"
              },
              {
                "display": "Plesiomonas shigelloides, NAAT",
                "reference": "Observation/ab1ecbd4-6de0-4f78-cea6-a880a15e88bb"
              },
              {
                "display": "Salmonella, NAAT",
                "reference": "Observation/27d88092-54d3-e478-d7e0-24cb7025f783"
              },
              {
                "display": "Vibrio, NAAT",
                "reference": "Observation/dbc917e1-8785-9da8-8c53-df9f84e1b654"
              },
              {
                "display": "Vibrio cholerae, NAAT",
                "reference": "Observation/a5e81e8e-f525-1125-0f2e-d5b62e5cefcf"
              },
              {
                "display": "Yersinia enterocolitica, NAAT",
                "reference": "Observation/56fcbbc2-ddd7-a128-f275-be0266218c25"
              },
              {
                "display": "E. Coli O157, NAAT",
                "reference": "Observation/2740f365-7fa7-6a59-ee85-7d6fec905027"
              },
              {
                "display": "E. Coli (EAEC), NAAT",
                "reference": "Observation/fc6d874c-eebb-a244-3fed-71ec18aa1f38"
              },
              {
                "display": "E. Coli (EPEC), NAAT",
                "reference": "Observation/acf2634c-62f8-df8d-fedf-16f9c44f2e15"
              },
              {
                "display": "E. Coli (ETEC), NAAT",
                "reference": "Observation/2d0d3912-bf1e-4da8-544b-89355c52dd25"
              },
              {
                "display": "Shiga-Like Toxin E. Coli (STEC), NAAT",
                "reference": "Observation/719c8a9d-196e-4d45-9d83-582a7b3c1fc9"
              },
              {
                "display": "Shigella/EIEC, NAAT",
                "reference": "Observation/25c0925a-7fb6-0c36-77c1-2ab174497969"
              },
              {
                "display": "Cryptosporidium, NAAT",
                "reference": "Observation/763b6a78-4b0b-4664-3ca3-005d1dd48422"
              },
              {
                "display": "Cyclospora cayetanensis, NAAT",
                "reference": "Observation/bd649a5b-0cbe-a742-277c-897e8163b124"
              },
              {
                "display": "E. histolytica, NAAT",
                "reference": "Observation/5e8c2f58-3adc-8f6f-262e-22174c3cb9ae"
              },
              {
                "display": "Giardia lamblia, NAAT",
                "reference": "Observation/9cafcb08-3fa2-f582-e423-80302d5994ef"
              },
              {
                "display": "Adenovirus F 40/41, NAAT",
                "reference": "Observation/88ad5ce6-4050-9628-a560-c0ca8d220a6a"
              },
              {
                "display": "Astrovirus, NAAT",
                "reference": "Observation/b6fd9076-66a4-1225-e2bf-701b7b2de43e"
              },
              {
                "display": "Norovirus, NAAT",
                "reference": "Observation/b4cd6618-9a23-c08f-d967-b6a451945de3"
              },
              {
                "display": "Rotavirus A, NAAT",
                "reference": "Observation/54272272-bd5a-8972-4861-c8aaeb45c57f"
              },
              {
                "display": "Sapovirus, NAAT",
                "reference": "Observation/080cfaeb-1e2a-4821-e8e7-de501483f46d"
              },
              {
                "display": "Lab Interpretation",
                "reference": "Observation/3d694e5a-92cc-9af5-4365-cfede30abe3c"
              },
              {
                "display": "Campylobacter, NAAT",
                "reference": "Observation/6643fc2a-cbf7-28e9-1331-66a180a09c14"
              },
              {
                "display": "Plesiomonas shigelloides, NAAT",
                "reference": "Observation/75bf8f82-8b28-b1bd-e366-cf55b2de0ad9"
              },
              {
                "display": "Salmonella, NAAT",
                "reference": "Observation/7981e6ae-8f87-c93c-efc5-707b8e3f99a0"
              },
              {
                "display": "Vibrio, NAAT",
                "reference": "Observation/9709d136-b5c7-1a47-f61e-ad4d32cd6522"
              },
              {
                "display": "Vibrio cholerae, NAAT",
                "reference": "Observation/c5487bdf-17e9-3d00-3243-38ae8c97a413"
              },
              {
                "display": "Yersinia enterocolitica, NAAT",
                "reference": "Observation/e63439ae-5ef1-a25c-894c-8da2f6214102"
              },
              {
                "display": "E. Coli (EAEC), NAAT",
                "reference": "Observation/94203863-e489-4b09-addf-af39da07f2ac"
              },
              {
                "display": "E. Coli (EPEC), NAAT",
                "reference": "Observation/9a2897ab-c3e2-2ec8-c17b-41b88437fc32"
              },
              {
                "display": "E. Coli (ETEC), NAAT",
                "reference": "Observation/729ba013-f503-4b10-3536-f9e709d2858a"
              },
              {
                "display": "Shiga-Like Toxin E. Coli (STEC), NAAT",
                "reference": "Observation/faffdbef-5ec2-c433-60b0-10ae63891c07"
              },
              {
                "display": "Shigella/EIEC, NAAT",
                "reference": "Observation/11902558-e412-ceab-678c-7789d59f414c"
              },
              {
                "display": "Cryptosporidium, NAAT",
                "reference": "Observation/7b8e832f-1986-59e2-a169-7f8185d1a4e4"
              },
              {
                "display": "Cyclospora cayetanensis, NAAT",
                "reference": "Observation/362c30d1-8015-4ddd-1b8b-bb99a7b40831"
              },
              {
                "display": "E. histolytica, NAAT",
                "reference": "Observation/d4cda7f0-a5c7-7f77-eaab-8fc9f303fd70"
              },
              {
                "display": "Giardia lamblia, NAAT",
                "reference": "Observation/1744be52-2a93-ad93-b0c3-8c0114c2399c"
              },
              {
                "display": "Adenovirus F 40/41, NAAT",
                "reference": "Observation/d6fe6a19-fc1c-e45a-f588-7fcac16f4283"
              },
              {
                "display": "Astrovirus, NAAT",
                "reference": "Observation/07540f21-e8c1-1675-701c-d3cd686e56b0"
              },
              {
                "display": "Norovirus, NAAT",
                "reference": "Observation/fe118866-7b70-866f-7fcd-909933d2fda0"
              },
              {
                "display": "Rotavirus A, NAAT",
                "reference": "Observation/c20a6535-5a70-c4ad-fc59-784d65b078d5"
              },
              {
                "display": "Sapovirus, NAAT",
                "reference": "Observation/54d662bc-8621-2e20-7542-d21b2b6dbe40"
              },
              {
                "display": "Lab Interpretation",
                "reference": "Observation/a3d6cd6c-ef20-8b18-9c50-d62212af9cf0"
              }
            ]
          },
          {
            "id": "0a1e796f-be8e-7ef3-7297-eef97b652f95",
            "title": "Social History",
            "text": {
              "status": "generated",
              "div": "<table><thead><tr><th>Tobacco Use</th><th>Types</th><th>Packs/Day</th><th>Years Used</th><th>Date</th></tr></thead><tbody><tr><td>Smoking Tobacco: Never</td><td></td><td></td><td></td><td></td></tr><tr><td>Smokeless Tobacco: Never</td><td></td><td></td><td></td><td></td></tr></tbody></table><table><thead><tr><th>Alcohol Use</th><th>Standard Drinks/Week</th><th>Comments</th></tr></thead><tbody><tr><td>Yes</td><td>0 (1 standard drink = 0.6 oz pure alcohol)</td><td></td></tr></tbody></table><table><thead><tr><th>Sex Assigned at Birth</th><th>Date Recorded</th></tr></thead><tbody><tr><td>Not on file</td><td></td></tr></tbody></table>documented as of this encounter"
            },
            "code": {
              "coding": [
                {
                  "code": "29762-2",
                  "display": "Social history Narrative",
                  "system": "http://loinc.org"
                }
              ]
            },
            "mode": "snapshot"
          },
          {
            "id": "5abe51f9-01ae-f8a2-2f7d-baae46ee02f4",
            "title": "Encounter Details",
            "text": {
              "status": "generated",
              "div": "<table><thead><tr><th>Date</th><th>Type</th><th>Department</th><th>Care Team</th><th>Description</th></tr></thead><tbody><tr><td>9/28/22</td><td>Lab Requisition</td><td>PROVIDENCE ST JOSEPH MED CTR LABORATORY 501 S Buena Vista St Burbank, CA 91505-4809 818-847-6060</td><td>Test, Ambhp1, MD 2001 LIND AVE RENTON, WA 98059</td><td></td></tr></tbody></table>"
            },
            "code": {
              "coding": [
                {
                  "code": "46240-8",
                  "display": "History of Hospitalizations+Outpatient visits Narrative",
                  "system": "http://loinc.org"
                }
              ]
            },
            "mode": "snapshot"
          },
          {
            "id": "c3ba19d3-057b-6424-d7d2-7db4599f5eb9",
            "title": "Reportability Response Information Section",
            "text": {
              "status": "generated",
              "div": "<div xmlns=\"http://www.w3.org/1999/xhtml\">Reportability Response Information Section</div>"
            },
            "extension": [
              {
                "url": "http://hl7.org/fhir/us/ecr/StructureDefinition/rr-composition",
                "valueIdentifier": {
                  "use": "official",
                  "type": {
                    "coding": [
                      {
                        "code": "88085-6",
                        "display": "Reportability response report Document Public health",
                        "system": "http://loinc.org"
                      }
                    ]
                  },
                  "value": "2e64023d-de5e-432e-b735-9cfd31698ec1"
                }
              },
              {
                "url": "http://hl7.org/fhir/us/ecr/StructureDefinition/rr-eicr-processing-status-extension",
                "valueCodeableConcept": {
                  "coding": [
                    {
                      "code": "RRVS19",
                      "display": "eICR processed",
                      "system": "urn:oid:2.16.840.1.114222.4.5.274"
                    }
                  ]
                }
              }
            ],
            "code": {
              "coding": [
                {
                  "code": "88085-6",
                  "display": "Reportability response report Document Public health",
                  "system": "http://loinc.org"
                }
              ]
            },
            "entry": [
              {
                "display": "Relevant Reportable Condition Observation - Salmonella infection (disorder)",
                "reference": "Observation/fa9132af-ef98-4952-bc98-1460db345c8b"
              },
              {
                "display": "Relevant Reportable Condition Observation - Shigellosis (disorder)",
                "reference": "Observation/f268007e-af41-4c35-890f-812a647f7dbc"
              },
              {
                "display": "Relevant Reportable Condition Observation - Salmonella infection (disorder)",
                "reference": "Observation/a727c08e-5ed2-4dae-a0f9-0119f0f0cafe"
              },
              {
                "display": "Relevant Reportable Condition Observation - Shigellosis (disorder)",
                "reference": "Observation/8d338edc-151e-4e85-922f-77868183af3b"
              }
            ]
          }
        ],
        "subject": {
          "reference": "Patient/032dcf43-5413-4857-87a3-09b627b7d595"
        },
        "relatesTo": [
          {
            "code": "replaces",
            "targetReference": {
              "reference": "Composition/1.2.840.114350.1.13.297.3.7.8.688883.538440"
            },
            "extension": [
              {
                "url": "http://hl7.org/fhir/StructureDefinition/composition-clinicaldocument-versionNumber",
                "valueString": "14"
              }
            ]
          }
        ],
        "encounter": {
          "reference": "Encounter/ec64cd62-282b-9c29-bdd3-f59d3aa15b3a"
        },
        "custodian": {
          "reference": "Organization/401e4e5a-69e1-bdf6-7016-6aa11dfdd01f"
        },
        "author": [
          {
            "reference": "Practitioner/80746d38-56d1-93cd-febe-13ad0807a14b"
          },
          {
            "reference": "Device/b663c1d0-8444-6b01-8f54-5ae6146d7572"
          }
        ]
      },
      "request": {
        "method": "PUT",
        "url": "Composition/1.2.840.114350.1.13.297.3.7.8.688883.538441"
      }
    },
    {
      "fullUrl": "urn:uuid:ec64cd62-282b-9c29-bdd3-f59d3aa15b3a",
      "resource": {
        "resourceType": "Encounter",
        "id": "ec64cd62-282b-9c29-bdd3-f59d3aa15b3a",
        "status": "unknown",
        "class": {
          "code": "AMB",
          "display": "Ambulatory",
          "system": "urn:oid:2.16.840.1.113883.5.4"
        },
        "identifier": [
          {
            "system": "urn:oid:1.2.840.114350.1.13.297.3.7.3.698084.8",
            "value": "50000595021"
          }
        ],
        "period": {
          "start": "2022-09-28",
          "end": "2022-09-28"
        },
        "subject": {
          "reference": "Patient/032dcf43-5413-4857-87a3-09b627b7d595"
        },
        "location": [
          {
            "id": "1.2.840.114350.1.13.297.3.7.2.686980",
            "location": {
              "reference": "Location/64cbd9e3-1a67-d754-a098-211ca812a775",
              "display": "PROVIDENCE ST JOSEPH MED CTR LABORATORY"
            },
            "extension": [
              {
                "url": "http://build.fhir.org/ig/HL7/case-reporting/StructureDefinition-us-ph-location-definitions.html#Location.type",
                "valueCodeableConcept": {
                  "coding": [
                    {
                      "code": "257622000",
                      "display": "Healthcare Facility",
                      "system": "http://snomed.info/sct"
                    }
                  ]
                }
              }
            ]
          }
        ],
        "participant": [
          {
            "type": [
              {
                "coding": [
                  {
                    "system": "http://terminology.hl7.org/CodeSystem/v3-ParticipationType",
                    "code": "ATND"
                  }
                ]
              }
            ],
            "individual": {
              "reference": "Practitioner/79842b6e-724b-8d57-dd2a-8d4b915f0558"
            }
          }
        ],
        "meta": {
          "source": [
            "ecr"
          ]
        }
      },
      "request": {
        "method": "PUT",
        "url": "Encounter/ec64cd62-282b-9c29-bdd3-f59d3aa15b3a"
      }
    },
    {
      "fullUrl": "urn:uuid:64cbd9e3-1a67-d754-a098-211ca812a775",
      "resource": {
        "resourceType": "Location",
        "id": "64cbd9e3-1a67-d754-a098-211ca812a775",
        "identifier": [
          {
            "value": "1.2.840.114350.1.13.297.3.7.2.686980"
          }
        ],
        "name": "PROVIDENCE ST JOSEPH MED CTR LABORATORY",
        "address": {
          "use": "work",
          "line": [
            "501 S Buena Vista St"
          ],
          "city": "Burbank",
          "state": "CA",
          "country": "USA",
          "postalCode": "91505-4809",
          "district": "LOS ANGELES"
        },
        "type": [
          {
            "coding": [
              {
                "code": "257622000",
                "display": "Healthcare Facility",
                "system": "http://snomed.info/sct"
              }
            ]
          }
        ],
        "meta": {
          "source": [
            "ecr"
          ]
        }
      },
      "request": {
        "method": "PUT",
        "url": "Location/64cbd9e3-1a67-d754-a098-211ca812a775"
      }
    },
    {
      "fullUrl": "urn:uuid:79842b6e-724b-8d57-dd2a-8d4b915f0558",
      "resource": {
        "resourceType": "Practitioner",
        "id": "79842b6e-724b-8d57-dd2a-8d4b915f0558",
        "meta": {
          "profile": [
            "http://hl7.org/fhir/us/core/StructureDefinition/us-core-practitioner"
          ],
          "source": [
            "ecr"
          ]
        },
        "extension": [
          {
            "url": "http://hl7.org/fhir/StructureDefinition/_datatype",
            "valueString": "Responsible Party"
          }
        ],
        "name": [
          {
            "use": "usual",
            "text": "Providence California"
          }
        ],
        "address": [
          {
            "use": "work",
            "line": [
              "4733 TORRANCE BLVD #4400"
            ],
            "city": "TORRANCE",
            "state": "CA",
            "country": "USA",
            "postalCode": "90503",
            "district": "LOS ANGELES"
          }
        ]
      },
      "request": {
        "method": "PUT",
        "url": "Practitioner/79842b6e-724b-8d57-dd2a-8d4b915f0558"
      }
    },
    {
      "fullUrl": "urn:uuid:d6930155-009b-92a0-d2b9-007761c45ad2",
      "resource": {
        "resourceType": "Organization",
        "id": "d6930155-009b-92a0-d2b9-007761c45ad2",
        "meta": {
          "profile": [
            "http://hl7.org/fhir/us/ecr/StructureDefinition/rr-routing-entity-organization"
          ],
          "source": [
            "ecr"
          ]
        },
        "active": true,
        "type": [
          {
            "coding": [
              {
                "system": "urn:oid:2.16.840.1.114222.4.5.232",
                "code": "RR7",
                "display": "Routing Entity"
              }
            ]
          }
        ],
        "name": "California Department of Public Health",
        "address": [
          {
            "use": "work",
            "city": "Sacramento",
            "state": "CA"
          }
        ],
        "telecom": [
          {
            "system": "email",
            "value": "CalREDIEeCR@cdph.ca.gov",
            "use": "work"
          }
        ]
      },
      "request": {
        "method": "PUT",
        "url": "Organization/d6930155-009b-92a0-d2b9-007761c45ad2"
      }
    },
    {
      "fullUrl": "urn:uuid:fa9132af-ef98-4952-bc98-1460db345c8b",
      "resource": {
        "resourceType": "Observation",
        "id": "fa9132af-ef98-4952-bc98-1460db345c8b",
        "meta": {
          "profile": [
            "http://hl7.org/fhir/us/ecr/StructureDefinition/rr-reportability-information-observation"
          ],
          "source": [
            "ecr"
          ]
        },
        "identifier": [
          {
            "system": "urn:ietf:rfc:3986",
            "value": "urn:uuid:fa9132af-ef98-4952-bc98-1460db345c8b"
          }
        ],
        "status": "final",
        "code": {
          "coding": [
            {
              "code": "64572001",
              "display": "Condition",
              "system": "http://snomed.info/sct"
            },
            {
              "code": "75323-6",
              "display": "Condition",
              "system": "http://loinc.org"
            }
          ]
        },
        "valueCodeableConcept": {
          "coding": [
            {
              "code": "302231008",
              "display": "Salmonella infection (disorder)",
              "system": "http://snomed.info/sct"
            }
          ]
        },
        "extension": [
          {
            "url": "http://hl7.org/fhir/us/ecr/StructureDefinition/us-ph-determination-of-reportability-rule-extension",
            "valueString": "Detection of Salmonella species and serovars nucleic acid (except S. typhi and S. paratyphi nucleic acid) in a clinical specimen by any method"
          }
        ],
        "performer": [
          {
            "reference": "Organization/d6930155-009b-92a0-d2b9-007761c45ad2",
            "display": "California Department of Public Health"
          }
        ]
      },
      "request": {
        "method": "PUT",
        "url": "Observation/fa9132af-ef98-4952-bc98-1460db345c8b"
      }
    },
    {
      "fullUrl": "urn:uuid:f268007e-af41-4c35-890f-812a647f7dbc",
      "resource": {
        "resourceType": "Observation",
        "id": "f268007e-af41-4c35-890f-812a647f7dbc",
        "meta": {
          "profile": [
            "http://hl7.org/fhir/us/ecr/StructureDefinition/rr-reportability-information-observation"
          ],
          "source": [
            "ecr"
          ]
        },
        "identifier": [
          {
            "system": "urn:ietf:rfc:3986",
            "value": "urn:uuid:f268007e-af41-4c35-890f-812a647f7dbc"
          }
        ],
        "status": "final",
        "code": {
          "coding": [
            {
              "code": "64572001",
              "display": "Condition",
              "system": "http://snomed.info/sct"
            },
            {
              "code": "75323-6",
              "display": "Condition",
              "system": "http://loinc.org"
            }
          ]
        },
        "valueCodeableConcept": {
          "coding": [
            {
              "code": "36188001",
              "display": "Shigellosis (disorder)",
              "system": "http://snomed.info/sct"
            }
          ]
        },
        "extension": [
          {
            "url": "http://hl7.org/fhir/us/ecr/StructureDefinition/us-ph-determination-of-reportability-rule-extension",
            "valueString": "Detection of Enteroinvasive E coli (EIEC) nucleic acid in a clinical specimen by any method"
          },
          {
            "url": "http://hl7.org/fhir/us/ecr/StructureDefinition/us-ph-determination-of-reportability-rule-extension",
            "valueString": "Detection of Shigella species nucleic acid in a clinical specimen by any method"
          }
        ],
        "performer": [
          {
            "reference": "Organization/d6930155-009b-92a0-d2b9-007761c45ad2",
            "display": "California Department of Public Health"
          }
        ]
      },
      "request": {
        "method": "PUT",
        "url": "Observation/f268007e-af41-4c35-890f-812a647f7dbc"
      }
    },
    {
      "fullUrl": "urn:uuid:f87de327-7272-42ac-012d-58904caf7ef1",
      "resource": {
        "resourceType": "Organization",
        "id": "f87de327-7272-42ac-012d-58904caf7ef1",
        "meta": {
          "profile": [
            "http://hl7.org/fhir/us/ecr/StructureDefinition/rr-routing-entity-organization"
          ],
          "source": [
            "ecr"
          ]
        },
        "active": true,
        "type": [
          {
            "coding": [
              {
                "system": "urn:oid:2.16.840.1.114222.4.5.232",
                "code": "RR7",
                "display": "Routing Entity"
              }
            ]
          }
        ],
        "name": "Los Angeles County Department of Public Health"
      },
      "request": {
        "method": "PUT",
        "url": "Organization/f87de327-7272-42ac-012d-58904caf7ef1"
      }
    },
    {
      "fullUrl": "urn:uuid:a727c08e-5ed2-4dae-a0f9-0119f0f0cafe",
      "resource": {
        "resourceType": "Observation",
        "id": "a727c08e-5ed2-4dae-a0f9-0119f0f0cafe",
        "meta": {
          "profile": [
            "http://hl7.org/fhir/us/ecr/StructureDefinition/rr-reportability-information-observation"
          ],
          "source": [
            "ecr"
          ]
        },
        "identifier": [
          {
            "system": "urn:ietf:rfc:3986",
            "value": "urn:uuid:a727c08e-5ed2-4dae-a0f9-0119f0f0cafe"
          }
        ],
        "status": "final",
        "code": {
          "coding": [
            {
              "code": "64572001",
              "display": "Condition",
              "system": "http://snomed.info/sct"
            },
            {
              "code": "75323-6",
              "display": "Condition",
              "system": "http://loinc.org"
            }
          ]
        },
        "valueCodeableConcept": {
          "coding": [
            {
              "code": "302231008",
              "display": "Salmonella infection (disorder)",
              "system": "http://snomed.info/sct"
            }
          ]
        },
        "extension": [
          {
            "url": "http://hl7.org/fhir/us/ecr/StructureDefinition/us-ph-determination-of-reportability-rule-extension",
            "valueString": "Detection of Salmonella species and serovars nucleic acid (except S. typhi and S. paratyphi nucleic acid) in a clinical specimen by any method"
          }
        ],
        "performer": [
          {
            "reference": "Organization/f87de327-7272-42ac-012d-58904caf7ef1",
            "display": "Los Angeles County Department of Public Health"
          }
        ]
      },
      "request": {
        "method": "PUT",
        "url": "Observation/a727c08e-5ed2-4dae-a0f9-0119f0f0cafe"
      }
    },
    {
      "fullUrl": "urn:uuid:8d338edc-151e-4e85-922f-77868183af3b",
      "resource": {
        "resourceType": "Observation",
        "id": "8d338edc-151e-4e85-922f-77868183af3b",
        "meta": {
          "profile": [
            "http://hl7.org/fhir/us/ecr/StructureDefinition/rr-reportability-information-observation"
          ],
          "source": [
            "ecr"
          ]
        },
        "identifier": [
          {
            "system": "urn:ietf:rfc:3986",
            "value": "urn:uuid:8d338edc-151e-4e85-922f-77868183af3b"
          }
        ],
        "status": "final",
        "code": {
          "coding": [
            {
              "code": "64572001",
              "display": "Condition",
              "system": "http://snomed.info/sct"
            },
            {
              "code": "75323-6",
              "display": "Condition",
              "system": "http://loinc.org"
            }
          ]
        },
        "valueCodeableConcept": {
          "coding": [
            {
              "code": "36188001",
              "display": "Shigellosis (disorder)",
              "system": "http://snomed.info/sct"
            }
          ]
        },
        "extension": [
          {
            "url": "http://hl7.org/fhir/us/ecr/StructureDefinition/us-ph-determination-of-reportability-rule-extension",
            "valueString": "Detection of Enteroinvasive E coli (EIEC) nucleic acid in a clinical specimen by any method"
          },
          {
            "url": "http://hl7.org/fhir/us/ecr/StructureDefinition/us-ph-determination-of-reportability-rule-extension",
            "valueString": "Detection of Shigella species nucleic acid in a clinical specimen by any method"
          }
        ],
        "performer": [
          {
            "reference": "Organization/f87de327-7272-42ac-012d-58904caf7ef1",
            "display": "Los Angeles County Department of Public Health"
          }
        ]
      },
      "request": {
        "method": "PUT",
        "url": "Observation/8d338edc-151e-4e85-922f-77868183af3b"
      }
    },
    {
      "fullUrl": "urn:uuid:401e4e5a-69e1-bdf6-7016-6aa11dfdd01f",
      "resource": {
        "resourceType": "Organization",
        "id": "401e4e5a-69e1-bdf6-7016-6aa11dfdd01f",
        "identifier": [
          {
            "system": "urn:oid:1.2.840.114350.1.13.297.3.7.2.696570",
            "value": "50"
          }
        ],
        "name": "Providence California",
        "address": [
          {
            "use": "work",
            "line": [
              "4733 TORRANCE BLVD #4400"
            ],
            "city": "TORRANCE",
            "state": "CA",
            "country": "USA",
            "postalCode": "90503",
            "district": "LOS ANGELES"
          }
        ],
        "telecom": [
          {
            "system": "phone",
            "value": "+1-855-415-6179",
            "use": "work"
          }
        ],
        "meta": {
          "source": [
            "ecr"
          ]
        }
      },
      "request": {
        "method": "PUT",
        "url": "Organization/401e4e5a-69e1-bdf6-7016-6aa11dfdd01f"
      }
    },
    {
      "fullUrl": "urn:uuid:80746d38-56d1-93cd-febe-13ad0807a14b",
      "resource": {
        "resourceType": "Practitioner",
        "id": "80746d38-56d1-93cd-febe-13ad0807a14b",
        "meta": {
          "profile": [
            "http://hl7.org/fhir/us/core/StructureDefinition/us-core-practitioner"
          ],
          "source": [
            "ecr"
          ]
        },
        "identifier": [
          {
            "system": "urn:oid:1.2.840.114350.1.13.297.3.7.2.697780",
            "value": "LABBACKGROUND"
          }
        ],
        "name": [
          {
            "family": "Lab",
            "given": [
              "Background"
            ]
          },
          {
            "use": "usual",
            "text": "Providence California"
          }
        ],
        "address": [
          {
            "use": "work",
            "line": [
              "4733 TORRANCE BLVD #4400"
            ],
            "city": "TORRANCE",
            "state": "CA",
            "country": "USA",
            "postalCode": "90503",
            "district": "LOS ANGELES"
          }
        ]
      },
      "request": {
        "method": "PUT",
        "url": "Practitioner/80746d38-56d1-93cd-febe-13ad0807a14b"
      }
    },
    {
      "fullUrl": "urn:uuid:b663c1d0-8444-6b01-8f54-5ae6146d7572",
      "resource": {
        "resourceType": "Device",
        "id": "b663c1d0-8444-6b01-8f54-5ae6146d7572",
        "identifier": [
          {
            "system": "urn:oid:1.2.840.114350.1.1",
            "value": "10.1"
          }
        ],
        "type": {
          "coding": [
            {
              "display": "Epic - Version 10.1"
            }
          ]
        },
        "manufacturer": "Epic - Version 10.1",
        "version": [
          {
            "value": "Epic - Version 10.1"
          }
        ],
        "category": {
          "coding": [
            {
              "system": "http://hl7.org/fhir/device-category",
              "code": "software",
              "display": "software"
            }
          ]
        },
        "owner": {
          "reference": "Organization/401e4e5a-69e1-bdf6-7016-6aa11dfdd01f"
        },
        "meta": {
          "source": [
            "ecr"
          ]
        }
      },
      "request": {
        "method": "PUT",
        "url": "Device/b663c1d0-8444-6b01-8f54-5ae6146d7572"
      }
    },
    {
      "fullUrl": "urn:uuid:032dcf43-5413-4857-87a3-09b627b7d595",
      "resource": {
        "resourceType": "Patient",
        "id": "032dcf43-5413-4857-87a3-09b627b7d595",
        "meta": {
          "profile": [
            "http://hl7.org/fhir/us/core/StructureDefinition/us-core-patient"
          ],
          "source": [
            "ecr"
          ]
        },
        "identifier": [
          {
            "system": "urn:oid:1.2.840.114350.1.13.297.3.7.3.688884.100",
            "value": "POC7649102"
          }
        ],
        "name": [
          {
            "use": "official",
            "family": "Test",
            "given": [
              "Adam"
            ]
          }
        ],
        "birthDate": "1970-01-01",
        "gender": "male",
        "extension": [
          {
            "url": "http://hl7.org/fhir/us/core/StructureDefinition/us-core-race",
            "extension": [
              {
                "url": "ombCategory",
                "valueCoding": {
                  "code": "2106-3",
                  "display": "White"
                }
              },
              {
                "url": "text",
                "valueString": "White"
              }
            ]
          },
          {
            "url": "http://hl7.org/fhir/us/core/StructureDefinition/us-core-ethnicity",
            "extension": [
              {
                "url": "ombCategory",
                "valueCoding": {
                  "code": "2186-5",
                  "display": "Not Hispanic or Latino"
                }
              },
              {
                "url": "text",
                "valueString": "Not Hispanic or Latino"
              }
            ]
          },
          {
            "url": "http://hl7.org/fhir/us/core/StructureDefinition/us-core-birthsex",
            "extension": [
              {
                "url": "value",
                "valueCodeableConcept": {
                  "coding": [
                    {
                      "system": "urn:oid:2.16.840.1.113883.5.1"
                    }
                  ]
                }
              }
            ]
          }
        ],
        "address": [
          {
            "use": "home",
            "line": [
              "9 Post Lane"
            ],
            "city": "NEWPORT BEACH",
            "state": "CA",
            "country": "USA",
            "postalCode": "92663"
          }
        ],
        "telecom": [
          {
            "system": "phone",
            "value": "+1-949-264-1098",
            "use": "home"
          },
          {
            "system": "email",
            "value": "mary.gibbs@Providence.org"
          }
        ],
        "contact": [
          {
            "relationship": "father",
            "telecom": [
              {
                "system": "phone",
                "value": "+1-777-666-5656",
                "use": "home"
              }
            ]
          }
        ],
        "communication": [
          {
            "language": {
              "coding": [
                {
                  "system": "urn:ietf:bcp:47"
                }
              ]
            }
          }
        ]
      },
      "request": {
        "method": "PUT",
        "url": "Patient/032dcf43-5413-4857-87a3-09b627b7d595"
      }
    },
    {
      "fullUrl": "urn:uuid:fb4c40a4-602f-9cf0-11c0-903b1f3d9e94",
      "resource": {
        "resourceType": "Condition",
        "id": "fb4c40a4-602f-9cf0-11c0-903b1f3d9e94",
        "identifier": [
          {
            "system": "urn:oid:1.2.840.114350.1.13.297.3.7.2.768076",
            "value": "35372"
          }
        ],
        "clinicalStatus": {
          "coding": [
            {
              "code": "55561003",
              "display": "Active",
              "system": "http://snomed.info/sct"
            }
          ]
        },
        "category": [
          {
            "coding": [
              {
                "code": "problem-item-list",
                "display": "Problem List Item",
                "system": "http://hl7.org/fhir/us/core/ValueSet/us-core-condition-category"
              }
            ]
          }
        ],
        "code": {
          "coding": [
            {
              "code": "S93.411A",
              "display": "Sprain of calcaneofibular ligament of right ankle",
              "system": "urn:oid:2.16.840.1.113883.6.90"
            }
          ]
        },
        "onsetDateTime": "2019-04-16",
        "subject": {
          "reference": "Patient/032dcf43-5413-4857-87a3-09b627b7d595"
        },
        "meta": {
          "source": [
            "ecr"
          ]
        }
      },
      "request": {
        "method": "PUT",
        "url": "Condition/fb4c40a4-602f-9cf0-11c0-903b1f3d9e94"
      }
    },
    {
      "fullUrl": "urn:uuid:3f9a9eb2-f922-634e-c26f-78392130df06",
      "resource": {
        "resourceType": "Condition",
        "id": "3f9a9eb2-f922-634e-c26f-78392130df06",
        "identifier": [
          {
            "system": "urn:oid:1.2.840.114350.1.13.297.3.7.2.768076",
            "value": "35774"
          }
        ],
        "clinicalStatus": {
          "coding": [
            {
              "code": "55561003",
              "display": "Active",
              "system": "http://snomed.info/sct"
            }
          ]
        },
        "category": [
          {
            "coding": [
              {
                "code": "problem-item-list",
                "display": "Problem List Item",
                "system": "http://hl7.org/fhir/us/core/ValueSet/us-core-condition-category"
              }
            ]
          }
        ],
        "code": {
          "coding": [
            {
              "code": "M25.569",
              "display": "Knee pain",
              "system": "urn:oid:2.16.840.1.113883.6.90"
            }
          ]
        },
        "onsetDateTime": "2019-04-29",
        "subject": {
          "reference": "Patient/032dcf43-5413-4857-87a3-09b627b7d595"
        },
        "meta": {
          "source": [
            "ecr"
          ]
        }
      },
      "request": {
        "method": "PUT",
        "url": "Condition/3f9a9eb2-f922-634e-c26f-78392130df06"
      }
    },
    {
      "fullUrl": "urn:uuid:f64c32dd-26f5-383c-7f50-ca6ec3f463c0",
      "resource": {
        "resourceType": "Condition",
        "id": "f64c32dd-26f5-383c-7f50-ca6ec3f463c0",
        "identifier": [
          {
            "system": "urn:oid:1.2.840.114350.1.13.297.3.7.2.768076",
            "value": "57636"
          }
        ],
        "clinicalStatus": {
          "coding": [
            {
              "code": "55561003",
              "display": "Active",
              "system": "http://snomed.info/sct"
            }
          ]
        },
        "category": [
          {
            "coding": [
              {
                "code": "problem-item-list",
                "display": "Problem List Item",
                "system": "http://hl7.org/fhir/us/core/ValueSet/us-core-condition-category"
              }
            ]
          }
        ],
        "code": {
          "coding": [
            {
              "code": "F41.9",
              "display": "Anxiety",
              "system": "urn:oid:2.16.840.1.113883.6.90"
            }
          ]
        },
        "onsetDateTime": "2020-11-10",
        "subject": {
          "reference": "Patient/032dcf43-5413-4857-87a3-09b627b7d595"
        },
        "meta": {
          "source": [
            "ecr"
          ]
        }
      },
      "request": {
        "method": "PUT",
        "url": "Condition/f64c32dd-26f5-383c-7f50-ca6ec3f463c0"
      }
    },
    {
      "fullUrl": "urn:uuid:5375a206-9dc9-92cf-2f48-6a5d46a47ef4",
      "resource": {
        "resourceType": "Condition",
        "id": "5375a206-9dc9-92cf-2f48-6a5d46a47ef4",
        "identifier": [
          {
            "system": "urn:oid:1.2.840.114350.1.13.297.3.7.2.768076",
            "value": "57637"
          }
        ],
        "clinicalStatus": {
          "coding": [
            {
              "code": "55561003",
              "display": "Active",
              "system": "http://snomed.info/sct"
            }
          ]
        },
        "category": [
          {
            "coding": [
              {
                "code": "problem-item-list",
                "display": "Problem List Item",
                "system": "http://hl7.org/fhir/us/core/ValueSet/us-core-condition-category"
              }
            ]
          }
        ],
        "code": {
          "coding": [
            {
              "code": "J45.909",
              "display": "Asthma",
              "system": "urn:oid:2.16.840.1.113883.6.90"
            }
          ]
        },
        "onsetDateTime": "2020-11-10",
        "subject": {
          "reference": "Patient/032dcf43-5413-4857-87a3-09b627b7d595"
        },
        "meta": {
          "source": [
            "ecr"
          ]
        }
      },
      "request": {
        "method": "PUT",
        "url": "Condition/5375a206-9dc9-92cf-2f48-6a5d46a47ef4"
      }
    },
    {
      "fullUrl": "urn:uuid:971021ee-126c-7d7f-0883-1a86d90514ed",
      "resource": {
        "resourceType": "Condition",
        "id": "971021ee-126c-7d7f-0883-1a86d90514ed",
        "identifier": [
          {
            "system": "urn:oid:1.2.840.114350.1.13.297.3.7.2.768076",
            "value": "58351"
          }
        ],
        "clinicalStatus": {
          "coding": [
            {
              "code": "55561003",
              "display": "Active",
              "system": "http://snomed.info/sct"
            }
          ]
        },
        "category": [
          {
            "coding": [
              {
                "code": "problem-item-list",
                "display": "Problem List Item",
                "system": "http://hl7.org/fhir/us/core/ValueSet/us-core-condition-category"
              }
            ]
          }
        ],
        "code": {
          "coding": [
            {
              "code": "M06.00",
              "display": "Rheumatoid arthritis with negative rheumatoid factor",
              "system": "urn:oid:2.16.840.1.113883.6.90"
            }
          ]
        },
        "onsetDateTime": "2020-11-16",
        "subject": {
          "reference": "Patient/032dcf43-5413-4857-87a3-09b627b7d595"
        },
        "meta": {
          "source": [
            "ecr"
          ]
        }
      },
      "request": {
        "method": "PUT",
        "url": "Condition/971021ee-126c-7d7f-0883-1a86d90514ed"
      }
    },
    {
      "fullUrl": "urn:uuid:115026c9-25f8-0790-a139-274c4d50499a",
      "resource": {
        "resourceType": "Condition",
        "id": "115026c9-25f8-0790-a139-274c4d50499a",
        "identifier": [
          {
            "system": "urn:oid:1.2.840.114350.1.13.297.3.7.2.768076",
            "value": "58352"
          }
        ],
        "clinicalStatus": {
          "coding": [
            {
              "code": "55561003",
              "display": "Active",
              "system": "http://snomed.info/sct"
            }
          ]
        },
        "category": [
          {
            "coding": [
              {
                "code": "problem-item-list",
                "display": "Problem List Item",
                "system": "http://hl7.org/fhir/us/core/ValueSet/us-core-condition-category"
              }
            ]
          }
        ],
        "code": {
          "coding": [
            {
              "code": "M25.571",
              "display": "Arthralgia of both ankles",
              "system": "urn:oid:2.16.840.1.113883.6.90"
            }
          ]
        },
        "onsetDateTime": "2020-11-16",
        "subject": {
          "reference": "Patient/032dcf43-5413-4857-87a3-09b627b7d595"
        },
        "meta": {
          "source": [
            "ecr"
          ]
        }
      },
      "request": {
        "method": "PUT",
        "url": "Condition/115026c9-25f8-0790-a139-274c4d50499a"
      }
    },
    {
      "fullUrl": "urn:uuid:f3abd872-80c0-6c83-5135-a2343b415038",
      "resource": {
        "resourceType": "Condition",
        "id": "f3abd872-80c0-6c83-5135-a2343b415038",
        "identifier": [
          {
            "system": "urn:oid:1.2.840.114350.1.13.297.3.7.2.768076",
            "value": "58701"
          }
        ],
        "clinicalStatus": {
          "coding": [
            {
              "code": "55561003",
              "display": "Active",
              "system": "http://snomed.info/sct"
            }
          ]
        },
        "category": [
          {
            "coding": [
              {
                "code": "problem-item-list",
                "display": "Problem List Item",
                "system": "http://hl7.org/fhir/us/core/ValueSet/us-core-condition-category"
              }
            ]
          }
        ],
        "code": {
          "coding": [
            {
              "code": "F31.9",
              "display": "Bipolar I disorder",
              "system": "urn:oid:2.16.840.1.113883.6.90"
            }
          ]
        },
        "onsetDateTime": "2020-11-19",
        "subject": {
          "reference": "Patient/032dcf43-5413-4857-87a3-09b627b7d595"
        },
        "meta": {
          "source": [
            "ecr"
          ]
        }
      },
      "request": {
        "method": "PUT",
        "url": "Condition/f3abd872-80c0-6c83-5135-a2343b415038"
      }
    },
    {
      "fullUrl": "urn:uuid:b8e04fe5-d35c-c8c5-af3f-64ea83195682",
      "resource": {
        "resourceType": "Condition",
        "id": "b8e04fe5-d35c-c8c5-af3f-64ea83195682",
        "identifier": [
          {
            "system": "urn:oid:1.2.840.114350.1.13.297.3.7.2.768076",
            "value": "58702"
          }
        ],
        "clinicalStatus": {
          "coding": [
            {
              "code": "55561003",
              "display": "Active",
              "system": "http://snomed.info/sct"
            }
          ]
        },
        "category": [
          {
            "coding": [
              {
                "code": "problem-item-list",
                "display": "Problem List Item",
                "system": "http://hl7.org/fhir/us/core/ValueSet/us-core-condition-category"
              }
            ]
          }
        ],
        "code": {
          "coding": [
            {
              "code": "F32.9",
              "display": "Reactive depression",
              "system": "urn:oid:2.16.840.1.113883.6.90"
            }
          ]
        },
        "onsetDateTime": "2020-11-19",
        "subject": {
          "reference": "Patient/032dcf43-5413-4857-87a3-09b627b7d595"
        },
        "meta": {
          "source": [
            "ecr"
          ]
        }
      },
      "request": {
        "method": "PUT",
        "url": "Condition/b8e04fe5-d35c-c8c5-af3f-64ea83195682"
      }
    },
    {
      "fullUrl": "urn:uuid:70b349e9-0797-8ade-fa0d-341be5c5b01d",
      "resource": {
        "resourceType": "DiagnosticReport",
        "id": "70b349e9-0797-8ade-fa0d-341be5c5b01d",
        "identifier": [
          {
            "system": "urn:oid:1.2.840.114350.1.13.297.3.7.2.798268",
            "value": "1670844"
          }
        ],
        "status": "final",
        "code": {
          "coding": [
            {
              "code": "LAB10082",
              "display": "STOOL PATHOGENS, NAAT, 12 TO 25 TARGETS",
              "system": "http://www.ama-assn.org/go/cpt"
            }
          ]
        },
        "effectivePeriod": {
          "start": "2022-09-28T20:51:00Z",
          "end": "2022-09-28T20:51:00Z"
        },
        "subject": {
          "reference": "Patient/032dcf43-5413-4857-87a3-09b627b7d595"
        },
        "performer": [
          {
            "reference": "Organization/9e215f4e-aac1-10cb-e412-020cd13a6ad9"
          }
        ],
        "result": [
          {
            "reference": "Observation/1c0f3367-0588-c90e-fed0-0d8c15c5ac1b"
          },
          {
            "reference": "Observation/ab1ecbd4-6de0-4f78-cea6-a880a15e88bb"
          },
          {
            "reference": "Observation/27d88092-54d3-e478-d7e0-24cb7025f783"
          },
          {
            "reference": "Observation/dbc917e1-8785-9da8-8c53-df9f84e1b654"
          },
          {
            "reference": "Observation/a5e81e8e-f525-1125-0f2e-d5b62e5cefcf"
          },
          {
            "reference": "Observation/56fcbbc2-ddd7-a128-f275-be0266218c25"
          },
          {
            "reference": "Observation/2740f365-7fa7-6a59-ee85-7d6fec905027"
          },
          {
            "reference": "Observation/fc6d874c-eebb-a244-3fed-71ec18aa1f38"
          },
          {
            "reference": "Observation/acf2634c-62f8-df8d-fedf-16f9c44f2e15"
          },
          {
            "reference": "Observation/2d0d3912-bf1e-4da8-544b-89355c52dd25"
          },
          {
            "reference": "Observation/719c8a9d-196e-4d45-9d83-582a7b3c1fc9"
          },
          {
            "reference": "Observation/25c0925a-7fb6-0c36-77c1-2ab174497969"
          },
          {
            "reference": "Observation/763b6a78-4b0b-4664-3ca3-005d1dd48422"
          },
          {
            "reference": "Observation/bd649a5b-0cbe-a742-277c-897e8163b124"
          },
          {
            "reference": "Observation/5e8c2f58-3adc-8f6f-262e-22174c3cb9ae"
          },
          {
            "reference": "Observation/9cafcb08-3fa2-f582-e423-80302d5994ef"
          },
          {
            "reference": "Observation/88ad5ce6-4050-9628-a560-c0ca8d220a6a"
          },
          {
            "reference": "Observation/b6fd9076-66a4-1225-e2bf-701b7b2de43e"
          },
          {
            "reference": "Observation/b4cd6618-9a23-c08f-d967-b6a451945de3"
          },
          {
            "reference": "Observation/54272272-bd5a-8972-4861-c8aaeb45c57f"
          },
          {
            "reference": "Observation/080cfaeb-1e2a-4821-e8e7-de501483f46d"
          },
          {
            "reference": "Observation/3d694e5a-92cc-9af5-4365-cfede30abe3c"
          }
        ],
        "meta": {
          "source": [
            "ecr"
          ]
        }
      },
      "request": {
        "method": "PUT",
        "url": "DiagnosticReport/70b349e9-0797-8ade-fa0d-341be5c5b01d"
      }
    },
    {
      "fullUrl": "urn:uuid:9e215f4e-aac1-10cb-e412-020cd13a6ad9",
      "resource": {
        "resourceType": "Organization",
        "id": "9e215f4e-aac1-10cb-e412-020cd13a6ad9",
        "name": "PROVIDENCE ST. JOSEPH MEDICAL CENTER LABORATORY (CLIA 05D0672675)",
        "address": [
          {
            "use": "work",
            "line": [
              "501 S. Buena Vista Street"
            ],
            "city": "Burbank",
            "state": "CA",
            "postalCode": "91505"
          }
        ],
        "meta": {
          "source": [
            "ecr"
          ]
        }
      },
      "request": {
        "method": "PUT",
        "url": "Organization/9e215f4e-aac1-10cb-e412-020cd13a6ad9"
      }
    },
    {
      "fullUrl": "urn:uuid:1c0f3367-0588-c90e-fed0-0d8c15c5ac1b",
      "resource": {
        "resourceType": "Observation",
        "id": "1c0f3367-0588-c90e-fed0-0d8c15c5ac1b",
        "meta": {
          "profile": [
            "http://hl7.org/fhir/us/core/StructureDefinition/us-core-observationresults"
          ],
          "source": [
            "ecr"
          ]
        },
        "identifier": [
          {
            "system": "urn:oid:1.2.840.114350.1.13.297.3.7.6.798268.2000",
            "value": "1670844.1"
          }
        ],
        "category": [
          {
            "coding": [
              {
                "system": "http://terminology.hl7.org/CodeSystem/observation-category",
                "code": "laboratory"
              }
            ]
          }
        ],
        "status": "final",
        "code": {
          "coding": [
            {
              "code": "82196-7",
              "display": "Campylobacter, NAAT",
              "system": "http://loinc.org"
            }
          ]
        },
        "effectiveDateTime": "2022-09-28T21:00:53Z",
        "valueString": "Not Detected",
        "extension": [
          {
            "url": "http://hl7.org/fhir/R4/specimen.html",
            "extension": [
              {
                "url": "specimen source",
                "valueString": "Stool"
              },
              {
                "url": "specimen collection time",
                "valueDateTime": "2022-09-28T20:51:00Z"
              }
            ]
          }
        ],
        "subject": {
          "reference": "Patient/032dcf43-5413-4857-87a3-09b627b7d595"
        },
        "performer": [
          {
            "display": "PROVIDENCE ST. JOSEPH MEDICAL CENTER LABORATORY (CLIA 05D0672675)",
            "reference": "Organization/88e344ad-5524-27dc-5803-c49647c531bd"
          }
        ]
      },
      "request": {
        "method": "PUT",
        "url": "Observation/1c0f3367-0588-c90e-fed0-0d8c15c5ac1b"
      }
    },
    {
      "fullUrl": "urn:uuid:88e344ad-5524-27dc-5803-c49647c531bd",
      "resource": {
        "resourceType": "Organization",
        "id": "88e344ad-5524-27dc-5803-c49647c531bd",
        "name": "PROVIDENCE ST. JOSEPH MEDICAL CENTER LABORATORY (CLIA 05D0672675)",
        "address": [
          {
            "line": [
              "501 S. Buena Vista Street"
            ],
            "city": "Burbank",
            "state": "CA",
            "postalCode": "91505"
          }
        ],
        "telecom": [
          {
            "system": "phone",
            "value": "+1-818-847-6000"
          }
        ],
        "meta": {
          "source": [
            "ecr"
          ]
        }
      },
      "request": {
        "method": "PUT",
        "url": "Organization/88e344ad-5524-27dc-5803-c49647c531bd"
      }
    },
    {
      "fullUrl": "urn:uuid:ab1ecbd4-6de0-4f78-cea6-a880a15e88bb",
      "resource": {
        "resourceType": "Observation",
        "id": "ab1ecbd4-6de0-4f78-cea6-a880a15e88bb",
        "meta": {
          "profile": [
            "http://hl7.org/fhir/us/core/StructureDefinition/us-core-observationresults"
          ],
          "source": [
            "ecr"
          ]
        },
        "identifier": [
          {
            "system": "urn:oid:1.2.840.114350.1.13.297.3.7.6.798268.2000",
            "value": "1670844.2"
          }
        ],
        "category": [
          {
            "coding": [
              {
                "system": "http://terminology.hl7.org/CodeSystem/observation-category",
                "code": "laboratory"
              }
            ]
          }
        ],
        "status": "final",
        "code": {
          "coding": [
            {
              "code": "82198-3",
              "display": "Plesiomonas shigelloides, NAAT",
              "system": "http://loinc.org"
            }
          ]
        },
        "effectiveDateTime": "2022-09-28T21:00:53Z",
        "valueString": "Not Detected",
        "extension": [
          {
            "url": "http://hl7.org/fhir/R4/specimen.html",
            "extension": [
              {
                "url": "specimen source",
                "valueString": "Stool"
              },
              {
                "url": "specimen collection time",
                "valueDateTime": "2022-09-28T20:51:00Z"
              }
            ]
          }
        ],
        "subject": {
          "reference": "Patient/032dcf43-5413-4857-87a3-09b627b7d595"
        },
        "performer": [
          {
            "display": "PROVIDENCE ST. JOSEPH MEDICAL CENTER LABORATORY (CLIA 05D0672675)",
            "reference": "Organization/88e344ad-5524-27dc-5803-c49647c531bd"
          }
        ]
      },
      "request": {
        "method": "PUT",
        "url": "Observation/ab1ecbd4-6de0-4f78-cea6-a880a15e88bb"
      }
    },
    {
      "fullUrl": "urn:uuid:27d88092-54d3-e478-d7e0-24cb7025f783",
      "resource": {
        "resourceType": "Observation",
        "id": "27d88092-54d3-e478-d7e0-24cb7025f783",
        "meta": {
          "profile": [
            "http://hl7.org/fhir/us/core/StructureDefinition/us-core-observationresults"
          ],
          "source": [
            "ecr"
          ]
        },
        "identifier": [
          {
            "system": "urn:oid:1.2.840.114350.1.13.297.3.7.6.798268.2000",
            "value": "1670844.3"
          }
        ],
        "category": [
          {
            "coding": [
              {
                "system": "http://terminology.hl7.org/CodeSystem/observation-category",
                "code": "laboratory"
              }
            ]
          }
        ],
        "status": "final",
        "code": {
          "coding": [
            {
              "code": "82199-1",
              "display": "Salmonella, NAAT",
              "system": "http://loinc.org"
            }
          ]
        },
        "effectiveDateTime": "2022-09-28T21:00:53Z",
        "valueCodeableConcept": {
          "coding": [
            {
              "code": "260373001",
              "display": "DETECTED",
              "system": "http://snomed.info/sct"
            }
          ]
        },
        "interpretation": [
          {
            "coding": [
              {
                "code": "AA",
                "display": "Abnormal Alert",
                "system": "http://terminology.hl7.org/CodeSystem/v3-ObservationInterpretation"
              }
            ]
          }
        ],
        "extension": [
          {
            "url": "http://hl7.org/fhir/R4/specimen.html",
            "extension": [
              {
                "url": "specimen source",
                "valueString": "Stool"
              },
              {
                "url": "specimen collection time",
                "valueDateTime": "2022-09-28T20:51:00Z"
              }
            ]
          }
        ],
        "subject": {
          "reference": "Patient/032dcf43-5413-4857-87a3-09b627b7d595"
        },
        "performer": [
          {
            "display": "PROVIDENCE ST. JOSEPH MEDICAL CENTER LABORATORY (CLIA 05D0672675)",
            "reference": "Organization/88e344ad-5524-27dc-5803-c49647c531bd"
          }
        ]
      },
      "request": {
        "method": "PUT",
        "url": "Observation/27d88092-54d3-e478-d7e0-24cb7025f783"
      }
    },
    {
      "fullUrl": "urn:uuid:dbc917e1-8785-9da8-8c53-df9f84e1b654",
      "resource": {
        "resourceType": "Observation",
        "id": "dbc917e1-8785-9da8-8c53-df9f84e1b654",
        "meta": {
          "profile": [
            "http://hl7.org/fhir/us/core/StructureDefinition/us-core-observationresults"
          ],
          "source": [
            "ecr"
          ]
        },
        "identifier": [
          {
            "system": "urn:oid:1.2.840.114350.1.13.297.3.7.6.798268.2000",
            "value": "1670844.4"
          }
        ],
        "category": [
          {
            "coding": [
              {
                "system": "http://terminology.hl7.org/CodeSystem/observation-category",
                "code": "laboratory"
              }
            ]
          }
        ],
        "status": "final",
        "code": {
          "coding": [
            {
              "code": "82200-7",
              "display": "Vibrio, NAAT",
              "system": "http://loinc.org"
            }
          ]
        },
        "effectiveDateTime": "2022-09-28T21:00:53Z",
        "valueString": "Not Detected",
        "extension": [
          {
            "url": "http://hl7.org/fhir/R4/specimen.html",
            "extension": [
              {
                "url": "specimen source",
                "valueString": "Stool"
              },
              {
                "url": "specimen collection time",
                "valueDateTime": "2022-09-28T20:51:00Z"
              }
            ]
          }
        ],
        "subject": {
          "reference": "Patient/032dcf43-5413-4857-87a3-09b627b7d595"
        },
        "performer": [
          {
            "display": "PROVIDENCE ST. JOSEPH MEDICAL CENTER LABORATORY (CLIA 05D0672675)",
            "reference": "Organization/88e344ad-5524-27dc-5803-c49647c531bd"
          }
        ]
      },
      "request": {
        "method": "PUT",
        "url": "Observation/dbc917e1-8785-9da8-8c53-df9f84e1b654"
      }
    },
    {
      "fullUrl": "urn:uuid:a5e81e8e-f525-1125-0f2e-d5b62e5cefcf",
      "resource": {
        "resourceType": "Observation",
        "id": "a5e81e8e-f525-1125-0f2e-d5b62e5cefcf",
        "meta": {
          "profile": [
            "http://hl7.org/fhir/us/core/StructureDefinition/us-core-observationresults"
          ],
          "source": [
            "ecr"
          ]
        },
        "identifier": [
          {
            "system": "urn:oid:1.2.840.114350.1.13.297.3.7.6.798268.2000",
            "value": "1670844.5"
          }
        ],
        "category": [
          {
            "coding": [
              {
                "system": "http://terminology.hl7.org/CodeSystem/observation-category",
                "code": "laboratory"
              }
            ]
          }
        ],
        "status": "final",
        "code": {
          "coding": [
            {
              "code": "82201-5",
              "display": "Vibrio cholerae, NAAT",
              "system": "http://loinc.org"
            }
          ]
        },
        "effectiveDateTime": "2022-09-28T21:00:53Z",
        "valueString": "Not Detected",
        "extension": [
          {
            "url": "http://hl7.org/fhir/R4/specimen.html",
            "extension": [
              {
                "url": "specimen source",
                "valueString": "Stool"
              },
              {
                "url": "specimen collection time",
                "valueDateTime": "2022-09-28T20:51:00Z"
              }
            ]
          }
        ],
        "subject": {
          "reference": "Patient/032dcf43-5413-4857-87a3-09b627b7d595"
        },
        "performer": [
          {
            "display": "PROVIDENCE ST. JOSEPH MEDICAL CENTER LABORATORY (CLIA 05D0672675)",
            "reference": "Organization/88e344ad-5524-27dc-5803-c49647c531bd"
          }
        ]
      },
      "request": {
        "method": "PUT",
        "url": "Observation/a5e81e8e-f525-1125-0f2e-d5b62e5cefcf"
      }
    },
    {
      "fullUrl": "urn:uuid:56fcbbc2-ddd7-a128-f275-be0266218c25",
      "resource": {
        "resourceType": "Observation",
        "id": "56fcbbc2-ddd7-a128-f275-be0266218c25",
        "meta": {
          "profile": [
            "http://hl7.org/fhir/us/core/StructureDefinition/us-core-observationresults"
          ],
          "source": [
            "ecr"
          ]
        },
        "identifier": [
          {
            "system": "urn:oid:1.2.840.114350.1.13.297.3.7.6.798268.2000",
            "value": "1670844.6"
          }
        ],
        "category": [
          {
            "coding": [
              {
                "system": "http://terminology.hl7.org/CodeSystem/observation-category",
                "code": "laboratory"
              }
            ]
          }
        ],
        "status": "final",
        "code": {
          "coding": [
            {
              "code": "82202-3",
              "display": "Yersinia enterocolitica, NAAT",
              "system": "http://loinc.org"
            }
          ]
        },
        "effectiveDateTime": "2022-09-28T21:00:53Z",
        "valueString": "Not Detected",
        "extension": [
          {
            "url": "http://hl7.org/fhir/R4/specimen.html",
            "extension": [
              {
                "url": "specimen source",
                "valueString": "Stool"
              },
              {
                "url": "specimen collection time",
                "valueDateTime": "2022-09-28T20:51:00Z"
              }
            ]
          }
        ],
        "subject": {
          "reference": "Patient/032dcf43-5413-4857-87a3-09b627b7d595"
        },
        "performer": [
          {
            "display": "PROVIDENCE ST. JOSEPH MEDICAL CENTER LABORATORY (CLIA 05D0672675)",
            "reference": "Organization/88e344ad-5524-27dc-5803-c49647c531bd"
          }
        ]
      },
      "request": {
        "method": "PUT",
        "url": "Observation/56fcbbc2-ddd7-a128-f275-be0266218c25"
      }
    },
    {
      "fullUrl": "urn:uuid:2740f365-7fa7-6a59-ee85-7d6fec905027",
      "resource": {
        "resourceType": "Observation",
        "id": "2740f365-7fa7-6a59-ee85-7d6fec905027",
        "meta": {
          "profile": [
            "http://hl7.org/fhir/us/core/StructureDefinition/us-core-observationresults"
          ],
          "source": [
            "ecr"
          ]
        },
        "identifier": [
          {
            "system": "urn:oid:1.2.840.114350.1.13.297.3.7.6.798268.2000",
            "value": "1670844.7"
          }
        ],
        "category": [
          {
            "coding": [
              {
                "system": "http://terminology.hl7.org/CodeSystem/observation-category",
                "code": "laboratory"
              }
            ]
          }
        ],
        "status": "final",
        "code": {
          "coding": [
            {
              "code": "82204-9",
              "display": "E. Coli O157, NAAT",
              "system": "http://loinc.org"
            }
          ]
        },
        "effectiveDateTime": "2022-09-28T21:00:53Z",
        "valueString": "Not Detected",
        "extension": [
          {
            "url": "http://hl7.org/fhir/R4/specimen.html",
            "extension": [
              {
                "url": "specimen source",
                "valueString": "Stool"
              },
              {
                "url": "specimen collection time",
                "valueDateTime": "2022-09-28T20:51:00Z"
              }
            ]
          }
        ],
        "subject": {
          "reference": "Patient/032dcf43-5413-4857-87a3-09b627b7d595"
        },
        "performer": [
          {
            "display": "PROVIDENCE ST. JOSEPH MEDICAL CENTER LABORATORY (CLIA 05D0672675)",
            "reference": "Organization/88e344ad-5524-27dc-5803-c49647c531bd"
          }
        ]
      },
      "request": {
        "method": "PUT",
        "url": "Observation/2740f365-7fa7-6a59-ee85-7d6fec905027"
      }
    },
    {
      "fullUrl": "urn:uuid:fc6d874c-eebb-a244-3fed-71ec18aa1f38",
      "resource": {
        "resourceType": "Observation",
        "id": "fc6d874c-eebb-a244-3fed-71ec18aa1f38",
        "meta": {
          "profile": [
            "http://hl7.org/fhir/us/core/StructureDefinition/us-core-observationresults"
          ],
          "source": [
            "ecr"
          ]
        },
        "identifier": [
          {
            "system": "urn:oid:1.2.840.114350.1.13.297.3.7.6.798268.2000",
            "value": "1670844.8"
          }
        ],
        "category": [
          {
            "coding": [
              {
                "system": "http://terminology.hl7.org/CodeSystem/observation-category",
                "code": "laboratory"
              }
            ]
          }
        ],
        "status": "final",
        "code": {
          "coding": [
            {
              "code": "80349-4",
              "display": "E. Coli (EAEC), NAAT",
              "system": "http://loinc.org"
            }
          ]
        },
        "effectiveDateTime": "2022-09-28T21:00:53Z",
        "valueString": "Not Detected",
        "extension": [
          {
            "url": "http://hl7.org/fhir/R4/specimen.html",
            "extension": [
              {
                "url": "specimen source",
                "valueString": "Stool"
              },
              {
                "url": "specimen collection time",
                "valueDateTime": "2022-09-28T20:51:00Z"
              }
            ]
          }
        ],
        "subject": {
          "reference": "Patient/032dcf43-5413-4857-87a3-09b627b7d595"
        },
        "performer": [
          {
            "display": "PROVIDENCE ST. JOSEPH MEDICAL CENTER LABORATORY (CLIA 05D0672675)",
            "reference": "Organization/88e344ad-5524-27dc-5803-c49647c531bd"
          }
        ]
      },
      "request": {
        "method": "PUT",
        "url": "Observation/fc6d874c-eebb-a244-3fed-71ec18aa1f38"
      }
    },
    {
      "fullUrl": "urn:uuid:acf2634c-62f8-df8d-fedf-16f9c44f2e15",
      "resource": {
        "resourceType": "Observation",
        "id": "acf2634c-62f8-df8d-fedf-16f9c44f2e15",
        "meta": {
          "profile": [
            "http://hl7.org/fhir/us/core/StructureDefinition/us-core-observationresults"
          ],
          "source": [
            "ecr"
          ]
        },
        "identifier": [
          {
            "system": "urn:oid:1.2.840.114350.1.13.297.3.7.6.798268.2000",
            "value": "1670844.9"
          }
        ],
        "category": [
          {
            "coding": [
              {
                "system": "http://terminology.hl7.org/CodeSystem/observation-category",
                "code": "laboratory"
              }
            ]
          }
        ],
        "status": "final",
        "code": {
          "coding": [
            {
              "code": "80348-6",
              "display": "E. Coli (EPEC), NAAT",
              "system": "http://loinc.org"
            }
          ]
        },
        "effectiveDateTime": "2022-09-28T21:00:53Z",
        "valueString": "Not Detected",
        "extension": [
          {
            "url": "http://hl7.org/fhir/R4/specimen.html",
            "extension": [
              {
                "url": "specimen source",
                "valueString": "Stool"
              },
              {
                "url": "specimen collection time",
                "valueDateTime": "2022-09-28T20:51:00Z"
              }
            ]
          }
        ],
        "subject": {
          "reference": "Patient/032dcf43-5413-4857-87a3-09b627b7d595"
        },
        "performer": [
          {
            "display": "PROVIDENCE ST. JOSEPH MEDICAL CENTER LABORATORY (CLIA 05D0672675)",
            "reference": "Organization/88e344ad-5524-27dc-5803-c49647c531bd"
          }
        ]
      },
      "request": {
        "method": "PUT",
        "url": "Observation/acf2634c-62f8-df8d-fedf-16f9c44f2e15"
      }
    },
    {
      "fullUrl": "urn:uuid:2d0d3912-bf1e-4da8-544b-89355c52dd25",
      "resource": {
        "resourceType": "Observation",
        "id": "2d0d3912-bf1e-4da8-544b-89355c52dd25",
        "meta": {
          "profile": [
            "http://hl7.org/fhir/us/core/StructureDefinition/us-core-observationresults"
          ],
          "source": [
            "ecr"
          ]
        },
        "identifier": [
          {
            "system": "urn:oid:1.2.840.114350.1.13.297.3.7.6.798268.2000",
            "value": "1670844.10"
          }
        ],
        "category": [
          {
            "coding": [
              {
                "system": "http://terminology.hl7.org/CodeSystem/observation-category",
                "code": "laboratory"
              }
            ]
          }
        ],
        "status": "final",
        "code": {
          "coding": [
            {
              "code": "80351-0",
              "display": "E. Coli (ETEC), NAAT",
              "system": "http://loinc.org"
            }
          ]
        },
        "effectiveDateTime": "2022-09-28T21:00:53Z",
        "valueString": "Not Detected",
        "extension": [
          {
            "url": "http://hl7.org/fhir/R4/specimen.html",
            "extension": [
              {
                "url": "specimen source",
                "valueString": "Stool"
              },
              {
                "url": "specimen collection time",
                "valueDateTime": "2022-09-28T20:51:00Z"
              }
            ]
          }
        ],
        "subject": {
          "reference": "Patient/032dcf43-5413-4857-87a3-09b627b7d595"
        },
        "performer": [
          {
            "display": "PROVIDENCE ST. JOSEPH MEDICAL CENTER LABORATORY (CLIA 05D0672675)",
            "reference": "Organization/88e344ad-5524-27dc-5803-c49647c531bd"
          }
        ]
      },
      "request": {
        "method": "PUT",
        "url": "Observation/2d0d3912-bf1e-4da8-544b-89355c52dd25"
      }
    },
    {
      "fullUrl": "urn:uuid:719c8a9d-196e-4d45-9d83-582a7b3c1fc9",
      "resource": {
        "resourceType": "Observation",
        "id": "719c8a9d-196e-4d45-9d83-582a7b3c1fc9",
        "meta": {
          "profile": [
            "http://hl7.org/fhir/us/core/StructureDefinition/us-core-observationresults"
          ],
          "source": [
            "ecr"
          ]
        },
        "identifier": [
          {
            "system": "urn:oid:1.2.840.114350.1.13.297.3.7.6.798268.2000",
            "value": "1670844.11"
          }
        ],
        "category": [
          {
            "coding": [
              {
                "system": "http://terminology.hl7.org/CodeSystem/observation-category",
                "code": "laboratory"
              }
            ]
          }
        ],
        "status": "final",
        "code": {
          "coding": [
            {
              "code": "82203-1",
              "display": "Shiga-Like Toxin E. Coli (STEC), NAAT",
              "system": "http://loinc.org"
            }
          ]
        },
        "effectiveDateTime": "2022-09-28T21:00:53Z",
        "valueString": "Not Detected",
        "extension": [
          {
            "url": "http://hl7.org/fhir/R4/specimen.html",
            "extension": [
              {
                "url": "specimen source",
                "valueString": "Stool"
              },
              {
                "url": "specimen collection time",
                "valueDateTime": "2022-09-28T20:51:00Z"
              }
            ]
          }
        ],
        "subject": {
          "reference": "Patient/032dcf43-5413-4857-87a3-09b627b7d595"
        },
        "performer": [
          {
            "display": "PROVIDENCE ST. JOSEPH MEDICAL CENTER LABORATORY (CLIA 05D0672675)",
            "reference": "Organization/88e344ad-5524-27dc-5803-c49647c531bd"
          }
        ]
      },
      "request": {
        "method": "PUT",
        "url": "Observation/719c8a9d-196e-4d45-9d83-582a7b3c1fc9"
      }
    },
    {
      "fullUrl": "urn:uuid:25c0925a-7fb6-0c36-77c1-2ab174497969",
      "resource": {
        "resourceType": "Observation",
        "id": "25c0925a-7fb6-0c36-77c1-2ab174497969",
        "meta": {
          "profile": [
            "http://hl7.org/fhir/us/core/StructureDefinition/us-core-observationresults"
          ],
          "source": [
            "ecr"
          ]
        },
        "identifier": [
          {
            "system": "urn:oid:1.2.840.114350.1.13.297.3.7.6.798268.2000",
            "value": "1670844.12"
          }
        ],
        "category": [
          {
            "coding": [
              {
                "system": "http://terminology.hl7.org/CodeSystem/observation-category",
                "code": "laboratory"
              }
            ]
          }
        ],
        "status": "final",
        "code": {
          "coding": [
            {
              "code": "80350-2",
              "display": "Shigella/EIEC, NAAT",
              "system": "http://loinc.org"
            }
          ]
        },
        "effectiveDateTime": "2022-09-28T21:00:53Z",
        "valueCodeableConcept": {
          "coding": [
            {
              "code": "260373001",
              "display": "DETECTED",
              "system": "http://snomed.info/sct"
            }
          ]
        },
        "interpretation": [
          {
            "coding": [
              {
                "code": "AA",
                "display": "Abnormal Alert",
                "system": "http://terminology.hl7.org/CodeSystem/v3-ObservationInterpretation"
              }
            ]
          }
        ],
        "extension": [
          {
            "url": "http://hl7.org/fhir/R4/specimen.html",
            "extension": [
              {
                "url": "specimen source",
                "valueString": "Stool"
              },
              {
                "url": "specimen collection time",
                "valueDateTime": "2022-09-28T20:51:00Z"
              }
            ]
          }
        ],
        "subject": {
          "reference": "Patient/032dcf43-5413-4857-87a3-09b627b7d595"
        },
        "performer": [
          {
            "display": "PROVIDENCE ST. JOSEPH MEDICAL CENTER LABORATORY (CLIA 05D0672675)",
            "reference": "Organization/88e344ad-5524-27dc-5803-c49647c531bd"
          }
        ]
      },
      "request": {
        "method": "PUT",
        "url": "Observation/25c0925a-7fb6-0c36-77c1-2ab174497969"
      }
    },
    {
      "fullUrl": "urn:uuid:763b6a78-4b0b-4664-3ca3-005d1dd48422",
      "resource": {
        "resourceType": "Observation",
        "id": "763b6a78-4b0b-4664-3ca3-005d1dd48422",
        "meta": {
          "profile": [
            "http://hl7.org/fhir/us/core/StructureDefinition/us-core-observationresults"
          ],
          "source": [
            "ecr"
          ]
        },
        "identifier": [
          {
            "system": "urn:oid:1.2.840.114350.1.13.297.3.7.6.798268.2000",
            "value": "1670844.13"
          }
        ],
        "category": [
          {
            "coding": [
              {
                "system": "http://terminology.hl7.org/CodeSystem/observation-category",
                "code": "laboratory"
              }
            ]
          }
        ],
        "status": "final",
        "code": {
          "coding": [
            {
              "code": "82205-6",
              "display": "Cryptosporidium, NAAT",
              "system": "http://loinc.org"
            }
          ]
        },
        "effectiveDateTime": "2022-09-28T21:00:53Z",
        "valueString": "Not Detected",
        "extension": [
          {
            "url": "http://hl7.org/fhir/R4/specimen.html",
            "extension": [
              {
                "url": "specimen source",
                "valueString": "Stool"
              },
              {
                "url": "specimen collection time",
                "valueDateTime": "2022-09-28T20:51:00Z"
              }
            ]
          }
        ],
        "subject": {
          "reference": "Patient/032dcf43-5413-4857-87a3-09b627b7d595"
        },
        "performer": [
          {
            "display": "PROVIDENCE ST. JOSEPH MEDICAL CENTER LABORATORY (CLIA 05D0672675)",
            "reference": "Organization/88e344ad-5524-27dc-5803-c49647c531bd"
          }
        ]
      },
      "request": {
        "method": "PUT",
        "url": "Observation/763b6a78-4b0b-4664-3ca3-005d1dd48422"
      }
    },
    {
      "fullUrl": "urn:uuid:bd649a5b-0cbe-a742-277c-897e8163b124",
      "resource": {
        "resourceType": "Observation",
        "id": "bd649a5b-0cbe-a742-277c-897e8163b124",
        "meta": {
          "profile": [
            "http://hl7.org/fhir/us/core/StructureDefinition/us-core-observationresults"
          ],
          "source": [
            "ecr"
          ]
        },
        "identifier": [
          {
            "system": "urn:oid:1.2.840.114350.1.13.297.3.7.6.798268.2000",
            "value": "1670844.14"
          }
        ],
        "category": [
          {
            "coding": [
              {
                "system": "http://terminology.hl7.org/CodeSystem/observation-category",
                "code": "laboratory"
              }
            ]
          }
        ],
        "status": "final",
        "code": {
          "coding": [
            {
              "code": "82206-4",
              "display": "Cyclospora cayetanensis, NAAT",
              "system": "http://loinc.org"
            }
          ]
        },
        "effectiveDateTime": "2022-09-28T21:00:53Z",
        "valueString": "Not Detected",
        "extension": [
          {
            "url": "http://hl7.org/fhir/R4/specimen.html",
            "extension": [
              {
                "url": "specimen source",
                "valueString": "Stool"
              },
              {
                "url": "specimen collection time",
                "valueDateTime": "2022-09-28T20:51:00Z"
              }
            ]
          }
        ],
        "subject": {
          "reference": "Patient/032dcf43-5413-4857-87a3-09b627b7d595"
        },
        "performer": [
          {
            "display": "PROVIDENCE ST. JOSEPH MEDICAL CENTER LABORATORY (CLIA 05D0672675)",
            "reference": "Organization/88e344ad-5524-27dc-5803-c49647c531bd"
          }
        ]
      },
      "request": {
        "method": "PUT",
        "url": "Observation/bd649a5b-0cbe-a742-277c-897e8163b124"
      }
    },
    {
      "fullUrl": "urn:uuid:5e8c2f58-3adc-8f6f-262e-22174c3cb9ae",
      "resource": {
        "resourceType": "Observation",
        "id": "5e8c2f58-3adc-8f6f-262e-22174c3cb9ae",
        "meta": {
          "profile": [
            "http://hl7.org/fhir/us/core/StructureDefinition/us-core-observationresults"
          ],
          "source": [
            "ecr"
          ]
        },
        "identifier": [
          {
            "system": "urn:oid:1.2.840.114350.1.13.297.3.7.6.798268.2000",
            "value": "1670844.15"
          }
        ],
        "category": [
          {
            "coding": [
              {
                "system": "http://terminology.hl7.org/CodeSystem/observation-category",
                "code": "laboratory"
              }
            ]
          }
        ],
        "status": "final",
        "code": {
          "coding": [
            {
              "code": "82207-2",
              "display": "E. histolytica, NAAT",
              "system": "http://loinc.org"
            }
          ]
        },
        "effectiveDateTime": "2022-09-28T21:00:53Z",
        "valueString": "Not Detected",
        "extension": [
          {
            "url": "http://hl7.org/fhir/R4/specimen.html",
            "extension": [
              {
                "url": "specimen source",
                "valueString": "Stool"
              },
              {
                "url": "specimen collection time",
                "valueDateTime": "2022-09-28T20:51:00Z"
              }
            ]
          }
        ],
        "subject": {
          "reference": "Patient/032dcf43-5413-4857-87a3-09b627b7d595"
        },
        "performer": [
          {
            "display": "PROVIDENCE ST. JOSEPH MEDICAL CENTER LABORATORY (CLIA 05D0672675)",
            "reference": "Organization/88e344ad-5524-27dc-5803-c49647c531bd"
          }
        ]
      },
      "request": {
        "method": "PUT",
        "url": "Observation/5e8c2f58-3adc-8f6f-262e-22174c3cb9ae"
      }
    },
    {
      "fullUrl": "urn:uuid:9cafcb08-3fa2-f582-e423-80302d5994ef",
      "resource": {
        "resourceType": "Observation",
        "id": "9cafcb08-3fa2-f582-e423-80302d5994ef",
        "meta": {
          "profile": [
            "http://hl7.org/fhir/us/core/StructureDefinition/us-core-observationresults"
          ],
          "source": [
            "ecr"
          ]
        },
        "identifier": [
          {
            "system": "urn:oid:1.2.840.114350.1.13.297.3.7.6.798268.2000",
            "value": "1670844.16"
          }
        ],
        "category": [
          {
            "coding": [
              {
                "system": "http://terminology.hl7.org/CodeSystem/observation-category",
                "code": "laboratory"
              }
            ]
          }
        ],
        "status": "final",
        "code": {
          "coding": [
            {
              "code": "82208-0",
              "display": "Giardia lamblia, NAAT",
              "system": "http://loinc.org"
            }
          ]
        },
        "effectiveDateTime": "2022-09-28T21:00:53Z",
        "valueString": "Not Detected",
        "extension": [
          {
            "url": "http://hl7.org/fhir/R4/specimen.html",
            "extension": [
              {
                "url": "specimen source",
                "valueString": "Stool"
              },
              {
                "url": "specimen collection time",
                "valueDateTime": "2022-09-28T20:51:00Z"
              }
            ]
          }
        ],
        "subject": {
          "reference": "Patient/032dcf43-5413-4857-87a3-09b627b7d595"
        },
        "performer": [
          {
            "display": "PROVIDENCE ST. JOSEPH MEDICAL CENTER LABORATORY (CLIA 05D0672675)",
            "reference": "Organization/88e344ad-5524-27dc-5803-c49647c531bd"
          }
        ]
      },
      "request": {
        "method": "PUT",
        "url": "Observation/9cafcb08-3fa2-f582-e423-80302d5994ef"
      }
    },
    {
      "fullUrl": "urn:uuid:88ad5ce6-4050-9628-a560-c0ca8d220a6a",
      "resource": {
        "resourceType": "Observation",
        "id": "88ad5ce6-4050-9628-a560-c0ca8d220a6a",
        "meta": {
          "profile": [
            "http://hl7.org/fhir/us/core/StructureDefinition/us-core-observationresults"
          ],
          "source": [
            "ecr"
          ]
        },
        "identifier": [
          {
            "system": "urn:oid:1.2.840.114350.1.13.297.3.7.6.798268.2000",
            "value": "1670844.17"
          }
        ],
        "category": [
          {
            "coding": [
              {
                "system": "http://terminology.hl7.org/CodeSystem/observation-category",
                "code": "laboratory"
              }
            ]
          }
        ],
        "status": "final",
        "code": {
          "coding": [
            {
              "code": "82209-8",
              "display": "Adenovirus F 40/41, NAAT",
              "system": "http://loinc.org"
            }
          ]
        },
        "effectiveDateTime": "2022-09-28T21:00:53Z",
        "valueString": "Not Detected",
        "extension": [
          {
            "url": "http://hl7.org/fhir/R4/specimen.html",
            "extension": [
              {
                "url": "specimen source",
                "valueString": "Stool"
              },
              {
                "url": "specimen collection time",
                "valueDateTime": "2022-09-28T20:51:00Z"
              }
            ]
          }
        ],
        "subject": {
          "reference": "Patient/032dcf43-5413-4857-87a3-09b627b7d595"
        },
        "performer": [
          {
            "display": "PROVIDENCE ST. JOSEPH MEDICAL CENTER LABORATORY (CLIA 05D0672675)",
            "reference": "Organization/88e344ad-5524-27dc-5803-c49647c531bd"
          }
        ]
      },
      "request": {
        "method": "PUT",
        "url": "Observation/88ad5ce6-4050-9628-a560-c0ca8d220a6a"
      }
    },
    {
      "fullUrl": "urn:uuid:b6fd9076-66a4-1225-e2bf-701b7b2de43e",
      "resource": {
        "resourceType": "Observation",
        "id": "b6fd9076-66a4-1225-e2bf-701b7b2de43e",
        "meta": {
          "profile": [
            "http://hl7.org/fhir/us/core/StructureDefinition/us-core-observationresults"
          ],
          "source": [
            "ecr"
          ]
        },
        "identifier": [
          {
            "system": "urn:oid:1.2.840.114350.1.13.297.3.7.6.798268.2000",
            "value": "1670844.18"
          }
        ],
        "category": [
          {
            "coding": [
              {
                "system": "http://terminology.hl7.org/CodeSystem/observation-category",
                "code": "laboratory"
              }
            ]
          }
        ],
        "status": "final",
        "code": {
          "coding": [
            {
              "code": "82210-6",
              "display": "Astrovirus, NAAT",
              "system": "http://loinc.org"
            }
          ]
        },
        "effectiveDateTime": "2022-09-28T21:00:53Z",
        "valueString": "Not Detected",
        "extension": [
          {
            "url": "http://hl7.org/fhir/R4/specimen.html",
            "extension": [
              {
                "url": "specimen source",
                "valueString": "Stool"
              },
              {
                "url": "specimen collection time",
                "valueDateTime": "2022-09-28T20:51:00Z"
              }
            ]
          }
        ],
        "subject": {
          "reference": "Patient/032dcf43-5413-4857-87a3-09b627b7d595"
        },
        "performer": [
          {
            "display": "PROVIDENCE ST. JOSEPH MEDICAL CENTER LABORATORY (CLIA 05D0672675)",
            "reference": "Organization/88e344ad-5524-27dc-5803-c49647c531bd"
          }
        ]
      },
      "request": {
        "method": "PUT",
        "url": "Observation/b6fd9076-66a4-1225-e2bf-701b7b2de43e"
      }
    },
    {
      "fullUrl": "urn:uuid:b4cd6618-9a23-c08f-d967-b6a451945de3",
      "resource": {
        "resourceType": "Observation",
        "id": "b4cd6618-9a23-c08f-d967-b6a451945de3",
        "meta": {
          "profile": [
            "http://hl7.org/fhir/us/core/StructureDefinition/us-core-observationresults"
          ],
          "source": [
            "ecr"
          ]
        },
        "identifier": [
          {
            "system": "urn:oid:1.2.840.114350.1.13.297.3.7.6.798268.2000",
            "value": "1670844.19"
          }
        ],
        "category": [
          {
            "coding": [
              {
                "system": "http://terminology.hl7.org/CodeSystem/observation-category",
                "code": "laboratory"
              }
            ]
          }
        ],
        "status": "final",
        "code": {
          "coding": [
            {
              "code": "82211-4",
              "display": "Norovirus, NAAT",
              "system": "http://loinc.org"
            }
          ]
        },
        "effectiveDateTime": "2022-09-28T21:00:53Z",
        "valueString": "Not Detected",
        "extension": [
          {
            "url": "http://hl7.org/fhir/R4/specimen.html",
            "extension": [
              {
                "url": "specimen source",
                "valueString": "Stool"
              },
              {
                "url": "specimen collection time",
                "valueDateTime": "2022-09-28T20:51:00Z"
              }
            ]
          }
        ],
        "subject": {
          "reference": "Patient/032dcf43-5413-4857-87a3-09b627b7d595"
        },
        "performer": [
          {
            "display": "PROVIDENCE ST. JOSEPH MEDICAL CENTER LABORATORY (CLIA 05D0672675)",
            "reference": "Organization/88e344ad-5524-27dc-5803-c49647c531bd"
          }
        ]
      },
      "request": {
        "method": "PUT",
        "url": "Observation/b4cd6618-9a23-c08f-d967-b6a451945de3"
      }
    },
    {
      "fullUrl": "urn:uuid:54272272-bd5a-8972-4861-c8aaeb45c57f",
      "resource": {
        "resourceType": "Observation",
        "id": "54272272-bd5a-8972-4861-c8aaeb45c57f",
        "meta": {
          "profile": [
            "http://hl7.org/fhir/us/core/StructureDefinition/us-core-observationresults"
          ],
          "source": [
            "ecr"
          ]
        },
        "identifier": [
          {
            "system": "urn:oid:1.2.840.114350.1.13.297.3.7.6.798268.2000",
            "value": "1670844.20"
          }
        ],
        "category": [
          {
            "coding": [
              {
                "system": "http://terminology.hl7.org/CodeSystem/observation-category",
                "code": "laboratory"
              }
            ]
          }
        ],
        "status": "final",
        "code": {
          "coding": [
            {
              "code": "82212-2",
              "display": "Rotavirus A, NAAT",
              "system": "http://loinc.org"
            }
          ]
        },
        "effectiveDateTime": "2022-09-28T21:00:53Z",
        "valueString": "Not Detected",
        "extension": [
          {
            "url": "http://hl7.org/fhir/R4/specimen.html",
            "extension": [
              {
                "url": "specimen source",
                "valueString": "Stool"
              },
              {
                "url": "specimen collection time",
                "valueDateTime": "2022-09-28T20:51:00Z"
              }
            ]
          }
        ],
        "subject": {
          "reference": "Patient/032dcf43-5413-4857-87a3-09b627b7d595"
        },
        "performer": [
          {
            "display": "PROVIDENCE ST. JOSEPH MEDICAL CENTER LABORATORY (CLIA 05D0672675)",
            "reference": "Organization/88e344ad-5524-27dc-5803-c49647c531bd"
          }
        ]
      },
      "request": {
        "method": "PUT",
        "url": "Observation/54272272-bd5a-8972-4861-c8aaeb45c57f"
      }
    },
    {
      "fullUrl": "urn:uuid:080cfaeb-1e2a-4821-e8e7-de501483f46d",
      "resource": {
        "resourceType": "Observation",
        "id": "080cfaeb-1e2a-4821-e8e7-de501483f46d",
        "meta": {
          "profile": [
            "http://hl7.org/fhir/us/core/StructureDefinition/us-core-observationresults"
          ],
          "source": [
            "ecr"
          ]
        },
        "identifier": [
          {
            "system": "urn:oid:1.2.840.114350.1.13.297.3.7.6.798268.2000",
            "value": "1670844.21"
          }
        ],
        "category": [
          {
            "coding": [
              {
                "system": "http://terminology.hl7.org/CodeSystem/observation-category",
                "code": "laboratory"
              }
            ]
          }
        ],
        "status": "final",
        "code": {
          "coding": [
            {
              "code": "82195-9",
              "display": "Sapovirus, NAAT",
              "system": "http://loinc.org"
            }
          ]
        },
        "effectiveDateTime": "2022-09-28T21:00:53Z",
        "valueString": "Not Detected",
        "extension": [
          {
            "url": "http://hl7.org/fhir/R4/specimen.html",
            "extension": [
              {
                "url": "specimen source",
                "valueString": "Stool"
              },
              {
                "url": "specimen collection time",
                "valueDateTime": "2022-09-28T20:51:00Z"
              }
            ]
          }
        ],
        "subject": {
          "reference": "Patient/032dcf43-5413-4857-87a3-09b627b7d595"
        },
        "performer": [
          {
            "display": "PROVIDENCE ST. JOSEPH MEDICAL CENTER LABORATORY (CLIA 05D0672675)",
            "reference": "Organization/88e344ad-5524-27dc-5803-c49647c531bd"
          }
        ]
      },
      "request": {
        "method": "PUT",
        "url": "Observation/080cfaeb-1e2a-4821-e8e7-de501483f46d"
      }
    },
    {
      "fullUrl": "urn:uuid:3d694e5a-92cc-9af5-4365-cfede30abe3c",
      "resource": {
        "resourceType": "Observation",
        "id": "3d694e5a-92cc-9af5-4365-cfede30abe3c",
        "meta": {
          "profile": [
            "http://hl7.org/fhir/us/core/StructureDefinition/us-core-observationresults"
          ],
          "source": [
            "ecr"
          ]
        },
        "identifier": [
          {
            "system": "urn:oid:1.2.840.114350.1.13.297.3.7.2.798268",
            "value": "1670844"
          }
        ],
        "category": [
          {
            "coding": [
              {
                "system": "http://terminology.hl7.org/CodeSystem/observation-category",
                "code": "laboratory"
              }
            ]
          }
        ],
        "status": "final",
        "code": {
          "coding": [
            {
              "code": "56850-1",
              "display": "Lab Interpretation",
              "system": "http://loinc.org"
            }
          ]
        },
        "effectiveDateTime": "2022-09-28T21:00:53Z",
        "valueString": "Abnormal",
        "extension": [
          {
            "url": "http://hl7.org/fhir/R4/specimen.html",
            "extension": [
              {
                "url": "specimen source",
                "valueString": "Stool"
              },
              {
                "url": "specimen collection time",
                "valueDateTime": "2022-09-28T20:51:00Z"
              }
            ]
          }
        ],
        "subject": {
          "reference": "Patient/032dcf43-5413-4857-87a3-09b627b7d595"
        }
      },
      "request": {
        "method": "PUT",
        "url": "Observation/3d694e5a-92cc-9af5-4365-cfede30abe3c"
      }
    },
    {
      "fullUrl": "urn:uuid:c090d379-9aea-f26e-4ddc-378223841e3b",
      "resource": {
        "resourceType": "DiagnosticReport",
        "id": "c090d379-9aea-f26e-4ddc-378223841e3b",
        "identifier": [
          {
            "system": "urn:oid:1.2.840.114350.1.13.297.3.7.2.798268",
            "value": "1670845"
          }
        ],
        "status": "final",
        "code": {
          "coding": [
            {
              "code": "LAB10082",
              "display": "STOOL PATHOGENS, NAAT, 12 TO 25 TARGETS",
              "system": "http://www.ama-assn.org/go/cpt"
            }
          ]
        },
        "effectivePeriod": {
          "start": "2022-09-28T20:51:00Z",
          "end": "2022-09-28T20:51:00Z"
        },
        "subject": {
          "reference": "Patient/032dcf43-5413-4857-87a3-09b627b7d595"
        },
        "performer": [
          {
            "reference": "Organization/9e215f4e-aac1-10cb-e412-020cd13a6ad9"
          }
        ],
        "result": [
          {
            "reference": "Observation/6643fc2a-cbf7-28e9-1331-66a180a09c14"
          },
          {
            "reference": "Observation/75bf8f82-8b28-b1bd-e366-cf55b2de0ad9"
          },
          {
            "reference": "Observation/7981e6ae-8f87-c93c-efc5-707b8e3f99a0"
          },
          {
            "reference": "Observation/9709d136-b5c7-1a47-f61e-ad4d32cd6522"
          },
          {
            "reference": "Observation/c5487bdf-17e9-3d00-3243-38ae8c97a413"
          },
          {
            "reference": "Observation/e63439ae-5ef1-a25c-894c-8da2f6214102"
          },
          {
            "reference": "Observation/94203863-e489-4b09-addf-af39da07f2ac"
          },
          {
            "reference": "Observation/9a2897ab-c3e2-2ec8-c17b-41b88437fc32"
          },
          {
            "reference": "Observation/729ba013-f503-4b10-3536-f9e709d2858a"
          },
          {
            "reference": "Observation/faffdbef-5ec2-c433-60b0-10ae63891c07"
          },
          {
            "reference": "Observation/11902558-e412-ceab-678c-7789d59f414c"
          },
          {
            "reference": "Observation/7b8e832f-1986-59e2-a169-7f8185d1a4e4"
          },
          {
            "reference": "Observation/362c30d1-8015-4ddd-1b8b-bb99a7b40831"
          },
          {
            "reference": "Observation/d4cda7f0-a5c7-7f77-eaab-8fc9f303fd70"
          },
          {
            "reference": "Observation/1744be52-2a93-ad93-b0c3-8c0114c2399c"
          },
          {
            "reference": "Observation/d6fe6a19-fc1c-e45a-f588-7fcac16f4283"
          },
          {
            "reference": "Observation/07540f21-e8c1-1675-701c-d3cd686e56b0"
          },
          {
            "reference": "Observation/fe118866-7b70-866f-7fcd-909933d2fda0"
          },
          {
            "reference": "Observation/c20a6535-5a70-c4ad-fc59-784d65b078d5"
          },
          {
            "reference": "Observation/54d662bc-8621-2e20-7542-d21b2b6dbe40"
          },
          {
            "reference": "Observation/a3d6cd6c-ef20-8b18-9c50-d62212af9cf0"
          }
        ],
        "meta": {
          "source": [
            "ecr"
          ]
        }
      },
      "request": {
        "method": "PUT",
        "url": "DiagnosticReport/c090d379-9aea-f26e-4ddc-378223841e3b"
      }
    },
    {
      "fullUrl": "urn:uuid:6643fc2a-cbf7-28e9-1331-66a180a09c14",
      "resource": {
        "resourceType": "Observation",
        "id": "6643fc2a-cbf7-28e9-1331-66a180a09c14",
        "meta": {
          "profile": [
            "http://hl7.org/fhir/us/core/StructureDefinition/us-core-observationresults"
          ],
          "source": [
            "ecr"
          ]
        },
        "identifier": [
          {
            "system": "urn:oid:1.2.840.114350.1.13.297.3.7.6.798268.2000",
            "value": "1670845.1"
          }
        ],
        "category": [
          {
            "coding": [
              {
                "system": "http://terminology.hl7.org/CodeSystem/observation-category",
                "code": "laboratory"
              }
            ]
          }
        ],
        "status": "final",
        "code": {
          "coding": [
            {
              "code": "82196-7",
              "display": "Campylobacter, NAAT",
              "system": "http://loinc.org"
            }
          ]
        },
        "effectiveDateTime": "2022-09-28T20:59:43Z",
        "valueString": "Not Detected",
        "extension": [
          {
            "url": "http://hl7.org/fhir/R4/specimen.html",
            "extension": [
              {
                "url": "specimen source",
                "valueString": "Stool"
              },
              {
                "url": "specimen collection time",
                "valueDateTime": "2022-09-28T20:51:00Z"
              }
            ]
          }
        ],
        "subject": {
          "reference": "Patient/032dcf43-5413-4857-87a3-09b627b7d595"
        },
        "performer": [
          {
            "display": "PROVIDENCE ST. JOSEPH MEDICAL CENTER LABORATORY (CLIA 05D0672675)",
            "reference": "Organization/88e344ad-5524-27dc-5803-c49647c531bd"
          }
        ]
      },
      "request": {
        "method": "PUT",
        "url": "Observation/6643fc2a-cbf7-28e9-1331-66a180a09c14"
      }
    },
    {
      "fullUrl": "urn:uuid:75bf8f82-8b28-b1bd-e366-cf55b2de0ad9",
      "resource": {
        "resourceType": "Observation",
        "id": "75bf8f82-8b28-b1bd-e366-cf55b2de0ad9",
        "meta": {
          "profile": [
            "http://hl7.org/fhir/us/core/StructureDefinition/us-core-observationresults"
          ],
          "source": [
            "ecr"
          ]
        },
        "identifier": [
          {
            "system": "urn:oid:1.2.840.114350.1.13.297.3.7.6.798268.2000",
            "value": "1670845.2"
          }
        ],
        "category": [
          {
            "coding": [
              {
                "system": "http://terminology.hl7.org/CodeSystem/observation-category",
                "code": "laboratory"
              }
            ]
          }
        ],
        "status": "final",
        "code": {
          "coding": [
            {
              "code": "82198-3",
              "display": "Plesiomonas shigelloides, NAAT",
              "system": "http://loinc.org"
            }
          ]
        },
        "effectiveDateTime": "2022-09-28T20:59:43Z",
        "valueString": "Not Detected",
        "extension": [
          {
            "url": "http://hl7.org/fhir/R4/specimen.html",
            "extension": [
              {
                "url": "specimen source",
                "valueString": "Stool"
              },
              {
                "url": "specimen collection time",
                "valueDateTime": "2022-09-28T20:51:00Z"
              }
            ]
          }
        ],
        "subject": {
          "reference": "Patient/032dcf43-5413-4857-87a3-09b627b7d595"
        },
        "performer": [
          {
            "display": "PROVIDENCE ST. JOSEPH MEDICAL CENTER LABORATORY (CLIA 05D0672675)",
            "reference": "Organization/88e344ad-5524-27dc-5803-c49647c531bd"
          }
        ]
      },
      "request": {
        "method": "PUT",
        "url": "Observation/75bf8f82-8b28-b1bd-e366-cf55b2de0ad9"
      }
    },
    {
      "fullUrl": "urn:uuid:7981e6ae-8f87-c93c-efc5-707b8e3f99a0",
      "resource": {
        "resourceType": "Observation",
        "id": "7981e6ae-8f87-c93c-efc5-707b8e3f99a0",
        "meta": {
          "profile": [
            "http://hl7.org/fhir/us/core/StructureDefinition/us-core-observationresults"
          ],
          "source": [
            "ecr"
          ]
        },
        "identifier": [
          {
            "system": "urn:oid:1.2.840.114350.1.13.297.3.7.6.798268.2000",
            "value": "1670845.3"
          }
        ],
        "category": [
          {
            "coding": [
              {
                "system": "http://terminology.hl7.org/CodeSystem/observation-category",
                "code": "laboratory"
              }
            ]
          }
        ],
        "status": "final",
        "code": {
          "coding": [
            {
              "code": "82199-1",
              "display": "Salmonella, NAAT",
              "system": "http://loinc.org"
            }
          ]
        },
        "effectiveDateTime": "2022-09-28T20:59:43Z",
        "valueString": "Not Detected",
        "extension": [
          {
            "url": "http://hl7.org/fhir/R4/specimen.html",
            "extension": [
              {
                "url": "specimen source",
                "valueString": "Stool"
              },
              {
                "url": "specimen collection time",
                "valueDateTime": "2022-09-28T20:51:00Z"
              }
            ]
          }
        ],
        "subject": {
          "reference": "Patient/032dcf43-5413-4857-87a3-09b627b7d595"
        },
        "performer": [
          {
            "display": "PROVIDENCE ST. JOSEPH MEDICAL CENTER LABORATORY (CLIA 05D0672675)",
            "reference": "Organization/88e344ad-5524-27dc-5803-c49647c531bd"
          }
        ]
      },
      "request": {
        "method": "PUT",
        "url": "Observation/7981e6ae-8f87-c93c-efc5-707b8e3f99a0"
      }
    },
    {
      "fullUrl": "urn:uuid:9709d136-b5c7-1a47-f61e-ad4d32cd6522",
      "resource": {
        "resourceType": "Observation",
        "id": "9709d136-b5c7-1a47-f61e-ad4d32cd6522",
        "meta": {
          "profile": [
            "http://hl7.org/fhir/us/core/StructureDefinition/us-core-observationresults"
          ],
          "source": [
            "ecr"
          ]
        },
        "identifier": [
          {
            "system": "urn:oid:1.2.840.114350.1.13.297.3.7.6.798268.2000",
            "value": "1670845.4"
          }
        ],
        "category": [
          {
            "coding": [
              {
                "system": "http://terminology.hl7.org/CodeSystem/observation-category",
                "code": "laboratory"
              }
            ]
          }
        ],
        "status": "final",
        "code": {
          "coding": [
            {
              "code": "82200-7",
              "display": "Vibrio, NAAT",
              "system": "http://loinc.org"
            }
          ]
        },
        "effectiveDateTime": "2022-09-28T20:59:43Z",
        "valueString": "Not Detected",
        "extension": [
          {
            "url": "http://hl7.org/fhir/R4/specimen.html",
            "extension": [
              {
                "url": "specimen source",
                "valueString": "Stool"
              },
              {
                "url": "specimen collection time",
                "valueDateTime": "2022-09-28T20:51:00Z"
              }
            ]
          }
        ],
        "subject": {
          "reference": "Patient/032dcf43-5413-4857-87a3-09b627b7d595"
        },
        "performer": [
          {
            "display": "PROVIDENCE ST. JOSEPH MEDICAL CENTER LABORATORY (CLIA 05D0672675)",
            "reference": "Organization/88e344ad-5524-27dc-5803-c49647c531bd"
          }
        ]
      },
      "request": {
        "method": "PUT",
        "url": "Observation/9709d136-b5c7-1a47-f61e-ad4d32cd6522"
      }
    },
    {
      "fullUrl": "urn:uuid:c5487bdf-17e9-3d00-3243-38ae8c97a413",
      "resource": {
        "resourceType": "Observation",
        "id": "c5487bdf-17e9-3d00-3243-38ae8c97a413",
        "meta": {
          "profile": [
            "http://hl7.org/fhir/us/core/StructureDefinition/us-core-observationresults"
          ],
          "source": [
            "ecr"
          ]
        },
        "identifier": [
          {
            "system": "urn:oid:1.2.840.114350.1.13.297.3.7.6.798268.2000",
            "value": "1670845.5"
          }
        ],
        "category": [
          {
            "coding": [
              {
                "system": "http://terminology.hl7.org/CodeSystem/observation-category",
                "code": "laboratory"
              }
            ]
          }
        ],
        "status": "final",
        "code": {
          "coding": [
            {
              "code": "82201-5",
              "display": "Vibrio cholerae, NAAT",
              "system": "http://loinc.org"
            }
          ]
        },
        "effectiveDateTime": "2022-09-28T20:59:43Z",
        "valueString": "Not Detected",
        "extension": [
          {
            "url": "http://hl7.org/fhir/R4/specimen.html",
            "extension": [
              {
                "url": "specimen source",
                "valueString": "Stool"
              },
              {
                "url": "specimen collection time",
                "valueDateTime": "2022-09-28T20:51:00Z"
              }
            ]
          }
        ],
        "subject": {
          "reference": "Patient/032dcf43-5413-4857-87a3-09b627b7d595"
        },
        "performer": [
          {
            "display": "PROVIDENCE ST. JOSEPH MEDICAL CENTER LABORATORY (CLIA 05D0672675)",
            "reference": "Organization/88e344ad-5524-27dc-5803-c49647c531bd"
          }
        ]
      },
      "request": {
        "method": "PUT",
        "url": "Observation/c5487bdf-17e9-3d00-3243-38ae8c97a413"
      }
    },
    {
      "fullUrl": "urn:uuid:e63439ae-5ef1-a25c-894c-8da2f6214102",
      "resource": {
        "resourceType": "Observation",
        "id": "e63439ae-5ef1-a25c-894c-8da2f6214102",
        "meta": {
          "profile": [
            "http://hl7.org/fhir/us/core/StructureDefinition/us-core-observationresults"
          ],
          "source": [
            "ecr"
          ]
        },
        "identifier": [
          {
            "system": "urn:oid:1.2.840.114350.1.13.297.3.7.6.798268.2000",
            "value": "1670845.6"
          }
        ],
        "category": [
          {
            "coding": [
              {
                "system": "http://terminology.hl7.org/CodeSystem/observation-category",
                "code": "laboratory"
              }
            ]
          }
        ],
        "status": "final",
        "code": {
          "coding": [
            {
              "code": "82202-3",
              "display": "Yersinia enterocolitica, NAAT",
              "system": "http://loinc.org"
            }
          ]
        },
        "effectiveDateTime": "2022-09-28T20:59:43Z",
        "valueString": "Not Detected",
        "extension": [
          {
            "url": "http://hl7.org/fhir/R4/specimen.html",
            "extension": [
              {
                "url": "specimen source",
                "valueString": "Stool"
              },
              {
                "url": "specimen collection time",
                "valueDateTime": "2022-09-28T20:51:00Z"
              }
            ]
          }
        ],
        "subject": {
          "reference": "Patient/032dcf43-5413-4857-87a3-09b627b7d595"
        },
        "performer": [
          {
            "display": "PROVIDENCE ST. JOSEPH MEDICAL CENTER LABORATORY (CLIA 05D0672675)",
            "reference": "Organization/88e344ad-5524-27dc-5803-c49647c531bd"
          }
        ]
      },
      "request": {
        "method": "PUT",
        "url": "Observation/e63439ae-5ef1-a25c-894c-8da2f6214102"
      }
    },
    {
      "fullUrl": "urn:uuid:94203863-e489-4b09-addf-af39da07f2ac",
      "resource": {
        "resourceType": "Observation",
        "id": "94203863-e489-4b09-addf-af39da07f2ac",
        "meta": {
          "profile": [
            "http://hl7.org/fhir/us/core/StructureDefinition/us-core-observationresults"
          ],
          "source": [
            "ecr"
          ]
        },
        "identifier": [
          {
            "system": "urn:oid:1.2.840.114350.1.13.297.3.7.6.798268.2000",
            "value": "1670845.7"
          }
        ],
        "category": [
          {
            "coding": [
              {
                "system": "http://terminology.hl7.org/CodeSystem/observation-category",
                "code": "laboratory"
              }
            ]
          }
        ],
        "status": "final",
        "code": {
          "coding": [
            {
              "code": "80349-4",
              "display": "E. Coli (EAEC), NAAT",
              "system": "http://loinc.org"
            }
          ]
        },
        "effectiveDateTime": "2022-09-28T20:59:43Z",
        "valueString": "Not Detected",
        "extension": [
          {
            "url": "http://hl7.org/fhir/R4/specimen.html",
            "extension": [
              {
                "url": "specimen source",
                "valueString": "Stool"
              },
              {
                "url": "specimen collection time",
                "valueDateTime": "2022-09-28T20:51:00Z"
              }
            ]
          }
        ],
        "subject": {
          "reference": "Patient/032dcf43-5413-4857-87a3-09b627b7d595"
        },
        "performer": [
          {
            "display": "PROVIDENCE ST. JOSEPH MEDICAL CENTER LABORATORY (CLIA 05D0672675)",
            "reference": "Organization/88e344ad-5524-27dc-5803-c49647c531bd"
          }
        ]
      },
      "request": {
        "method": "PUT",
        "url": "Observation/94203863-e489-4b09-addf-af39da07f2ac"
      }
    },
    {
      "fullUrl": "urn:uuid:9a2897ab-c3e2-2ec8-c17b-41b88437fc32",
      "resource": {
        "resourceType": "Observation",
        "id": "9a2897ab-c3e2-2ec8-c17b-41b88437fc32",
        "meta": {
          "profile": [
            "http://hl7.org/fhir/us/core/StructureDefinition/us-core-observationresults"
          ],
          "source": [
            "ecr"
          ]
        },
        "identifier": [
          {
            "system": "urn:oid:1.2.840.114350.1.13.297.3.7.6.798268.2000",
            "value": "1670845.8"
          }
        ],
        "category": [
          {
            "coding": [
              {
                "system": "http://terminology.hl7.org/CodeSystem/observation-category",
                "code": "laboratory"
              }
            ]
          }
        ],
        "status": "final",
        "code": {
          "coding": [
            {
              "code": "80348-6",
              "display": "E. Coli (EPEC), NAAT",
              "system": "http://loinc.org"
            }
          ]
        },
        "effectiveDateTime": "2022-09-28T20:59:43Z",
        "valueString": "Not Detected",
        "extension": [
          {
            "url": "http://hl7.org/fhir/R4/specimen.html",
            "extension": [
              {
                "url": "specimen source",
                "valueString": "Stool"
              },
              {
                "url": "specimen collection time",
                "valueDateTime": "2022-09-28T20:51:00Z"
              }
            ]
          }
        ],
        "subject": {
          "reference": "Patient/032dcf43-5413-4857-87a3-09b627b7d595"
        },
        "performer": [
          {
            "display": "PROVIDENCE ST. JOSEPH MEDICAL CENTER LABORATORY (CLIA 05D0672675)",
            "reference": "Organization/88e344ad-5524-27dc-5803-c49647c531bd"
          }
        ]
      },
      "request": {
        "method": "PUT",
        "url": "Observation/9a2897ab-c3e2-2ec8-c17b-41b88437fc32"
      }
    },
    {
      "fullUrl": "urn:uuid:729ba013-f503-4b10-3536-f9e709d2858a",
      "resource": {
        "resourceType": "Observation",
        "id": "729ba013-f503-4b10-3536-f9e709d2858a",
        "meta": {
          "profile": [
            "http://hl7.org/fhir/us/core/StructureDefinition/us-core-observationresults"
          ],
          "source": [
            "ecr"
          ]
        },
        "identifier": [
          {
            "system": "urn:oid:1.2.840.114350.1.13.297.3.7.6.798268.2000",
            "value": "1670845.9"
          }
        ],
        "category": [
          {
            "coding": [
              {
                "system": "http://terminology.hl7.org/CodeSystem/observation-category",
                "code": "laboratory"
              }
            ]
          }
        ],
        "status": "final",
        "code": {
          "coding": [
            {
              "code": "80351-0",
              "display": "E. Coli (ETEC), NAAT",
              "system": "http://loinc.org"
            }
          ]
        },
        "effectiveDateTime": "2022-09-28T20:59:43Z",
        "valueString": "Not Detected",
        "extension": [
          {
            "url": "http://hl7.org/fhir/R4/specimen.html",
            "extension": [
              {
                "url": "specimen source",
                "valueString": "Stool"
              },
              {
                "url": "specimen collection time",
                "valueDateTime": "2022-09-28T20:51:00Z"
              }
            ]
          }
        ],
        "subject": {
          "reference": "Patient/032dcf43-5413-4857-87a3-09b627b7d595"
        },
        "performer": [
          {
            "display": "PROVIDENCE ST. JOSEPH MEDICAL CENTER LABORATORY (CLIA 05D0672675)",
            "reference": "Organization/88e344ad-5524-27dc-5803-c49647c531bd"
          }
        ]
      },
      "request": {
        "method": "PUT",
        "url": "Observation/729ba013-f503-4b10-3536-f9e709d2858a"
      }
    },
    {
      "fullUrl": "urn:uuid:faffdbef-5ec2-c433-60b0-10ae63891c07",
      "resource": {
        "resourceType": "Observation",
        "id": "faffdbef-5ec2-c433-60b0-10ae63891c07",
        "meta": {
          "profile": [
            "http://hl7.org/fhir/us/core/StructureDefinition/us-core-observationresults"
          ],
          "source": [
            "ecr"
          ]
        },
        "identifier": [
          {
            "system": "urn:oid:1.2.840.114350.1.13.297.3.7.6.798268.2000",
            "value": "1670845.10"
          }
        ],
        "category": [
          {
            "coding": [
              {
                "system": "http://terminology.hl7.org/CodeSystem/observation-category",
                "code": "laboratory"
              }
            ]
          }
        ],
        "status": "final",
        "code": {
          "coding": [
            {
              "code": "82203-1",
              "display": "Shiga-Like Toxin E. Coli (STEC), NAAT",
              "system": "http://loinc.org"
            }
          ]
        },
        "effectiveDateTime": "2022-09-28T20:59:43Z",
        "valueString": "Not Detected",
        "extension": [
          {
            "url": "http://hl7.org/fhir/R4/specimen.html",
            "extension": [
              {
                "url": "specimen source",
                "valueString": "Stool"
              },
              {
                "url": "specimen collection time",
                "valueDateTime": "2022-09-28T20:51:00Z"
              }
            ]
          }
        ],
        "subject": {
          "reference": "Patient/032dcf43-5413-4857-87a3-09b627b7d595"
        },
        "performer": [
          {
            "display": "PROVIDENCE ST. JOSEPH MEDICAL CENTER LABORATORY (CLIA 05D0672675)",
            "reference": "Organization/88e344ad-5524-27dc-5803-c49647c531bd"
          }
        ]
      },
      "request": {
        "method": "PUT",
        "url": "Observation/faffdbef-5ec2-c433-60b0-10ae63891c07"
      }
    },
    {
      "fullUrl": "urn:uuid:11902558-e412-ceab-678c-7789d59f414c",
      "resource": {
        "resourceType": "Observation",
        "id": "11902558-e412-ceab-678c-7789d59f414c",
        "meta": {
          "profile": [
            "http://hl7.org/fhir/us/core/StructureDefinition/us-core-observationresults"
          ],
          "source": [
            "ecr"
          ]
        },
        "identifier": [
          {
            "system": "urn:oid:1.2.840.114350.1.13.297.3.7.6.798268.2000",
            "value": "1670845.11"
          }
        ],
        "category": [
          {
            "coding": [
              {
                "system": "http://terminology.hl7.org/CodeSystem/observation-category",
                "code": "laboratory"
              }
            ]
          }
        ],
        "status": "final",
        "code": {
          "coding": [
            {
              "code": "80350-2",
              "display": "Shigella/EIEC, NAAT",
              "system": "http://loinc.org"
            }
          ]
        },
        "effectiveDateTime": "2022-09-28T20:59:43Z",
        "valueString": "Not Detected",
        "extension": [
          {
            "url": "http://hl7.org/fhir/R4/specimen.html",
            "extension": [
              {
                "url": "specimen source",
                "valueString": "Stool"
              },
              {
                "url": "specimen collection time",
                "valueDateTime": "2022-09-28T20:51:00Z"
              }
            ]
          }
        ],
        "subject": {
          "reference": "Patient/032dcf43-5413-4857-87a3-09b627b7d595"
        },
        "performer": [
          {
            "display": "PROVIDENCE ST. JOSEPH MEDICAL CENTER LABORATORY (CLIA 05D0672675)",
            "reference": "Organization/88e344ad-5524-27dc-5803-c49647c531bd"
          }
        ]
      },
      "request": {
        "method": "PUT",
        "url": "Observation/11902558-e412-ceab-678c-7789d59f414c"
      }
    },
    {
      "fullUrl": "urn:uuid:7b8e832f-1986-59e2-a169-7f8185d1a4e4",
      "resource": {
        "resourceType": "Observation",
        "id": "7b8e832f-1986-59e2-a169-7f8185d1a4e4",
        "meta": {
          "profile": [
            "http://hl7.org/fhir/us/core/StructureDefinition/us-core-observationresults"
          ],
          "source": [
            "ecr"
          ]
        },
        "identifier": [
          {
            "system": "urn:oid:1.2.840.114350.1.13.297.3.7.6.798268.2000",
            "value": "1670845.12"
          }
        ],
        "category": [
          {
            "coding": [
              {
                "system": "http://terminology.hl7.org/CodeSystem/observation-category",
                "code": "laboratory"
              }
            ]
          }
        ],
        "status": "final",
        "code": {
          "coding": [
            {
              "code": "82205-6",
              "display": "Cryptosporidium, NAAT",
              "system": "http://loinc.org"
            }
          ]
        },
        "effectiveDateTime": "2022-09-28T20:59:43Z",
        "valueString": "Not Detected",
        "extension": [
          {
            "url": "http://hl7.org/fhir/R4/specimen.html",
            "extension": [
              {
                "url": "specimen source",
                "valueString": "Stool"
              },
              {
                "url": "specimen collection time",
                "valueDateTime": "2022-09-28T20:51:00Z"
              }
            ]
          }
        ],
        "subject": {
          "reference": "Patient/032dcf43-5413-4857-87a3-09b627b7d595"
        },
        "performer": [
          {
            "display": "PROVIDENCE ST. JOSEPH MEDICAL CENTER LABORATORY (CLIA 05D0672675)",
            "reference": "Organization/88e344ad-5524-27dc-5803-c49647c531bd"
          }
        ]
      },
      "request": {
        "method": "PUT",
        "url": "Observation/7b8e832f-1986-59e2-a169-7f8185d1a4e4"
      }
    },
    {
      "fullUrl": "urn:uuid:362c30d1-8015-4ddd-1b8b-bb99a7b40831",
      "resource": {
        "resourceType": "Observation",
        "id": "362c30d1-8015-4ddd-1b8b-bb99a7b40831",
        "meta": {
          "profile": [
            "http://hl7.org/fhir/us/core/StructureDefinition/us-core-observationresults"
          ],
          "source": [
            "ecr"
          ]
        },
        "identifier": [
          {
            "system": "urn:oid:1.2.840.114350.1.13.297.3.7.6.798268.2000",
            "value": "1670845.13"
          }
        ],
        "category": [
          {
            "coding": [
              {
                "system": "http://terminology.hl7.org/CodeSystem/observation-category",
                "code": "laboratory"
              }
            ]
          }
        ],
        "status": "final",
        "code": {
          "coding": [
            {
              "code": "82206-4",
              "display": "Cyclospora cayetanensis, NAAT",
              "system": "http://loinc.org"
            }
          ]
        },
        "effectiveDateTime": "2022-09-28T20:59:43Z",
        "valueString": "Not Detected",
        "extension": [
          {
            "url": "http://hl7.org/fhir/R4/specimen.html",
            "extension": [
              {
                "url": "specimen source",
                "valueString": "Stool"
              },
              {
                "url": "specimen collection time",
                "valueDateTime": "2022-09-28T20:51:00Z"
              }
            ]
          }
        ],
        "subject": {
          "reference": "Patient/032dcf43-5413-4857-87a3-09b627b7d595"
        },
        "performer": [
          {
            "display": "PROVIDENCE ST. JOSEPH MEDICAL CENTER LABORATORY (CLIA 05D0672675)",
            "reference": "Organization/88e344ad-5524-27dc-5803-c49647c531bd"
          }
        ]
      },
      "request": {
        "method": "PUT",
        "url": "Observation/362c30d1-8015-4ddd-1b8b-bb99a7b40831"
      }
    },
    {
      "fullUrl": "urn:uuid:d4cda7f0-a5c7-7f77-eaab-8fc9f303fd70",
      "resource": {
        "resourceType": "Observation",
        "id": "d4cda7f0-a5c7-7f77-eaab-8fc9f303fd70",
        "meta": {
          "profile": [
            "http://hl7.org/fhir/us/core/StructureDefinition/us-core-observationresults"
          ],
          "source": [
            "ecr"
          ]
        },
        "identifier": [
          {
            "system": "urn:oid:1.2.840.114350.1.13.297.3.7.6.798268.2000",
            "value": "1670845.14"
          }
        ],
        "category": [
          {
            "coding": [
              {
                "system": "http://terminology.hl7.org/CodeSystem/observation-category",
                "code": "laboratory"
              }
            ]
          }
        ],
        "status": "final",
        "code": {
          "coding": [
            {
              "code": "82207-2",
              "display": "E. histolytica, NAAT",
              "system": "http://loinc.org"
            }
          ]
        },
        "effectiveDateTime": "2022-09-28T20:59:43Z",
        "valueString": "Not Detected",
        "extension": [
          {
            "url": "http://hl7.org/fhir/R4/specimen.html",
            "extension": [
              {
                "url": "specimen source",
                "valueString": "Stool"
              },
              {
                "url": "specimen collection time",
                "valueDateTime": "2022-09-28T20:51:00Z"
              }
            ]
          }
        ],
        "subject": {
          "reference": "Patient/032dcf43-5413-4857-87a3-09b627b7d595"
        },
        "performer": [
          {
            "display": "PROVIDENCE ST. JOSEPH MEDICAL CENTER LABORATORY (CLIA 05D0672675)",
            "reference": "Organization/88e344ad-5524-27dc-5803-c49647c531bd"
          }
        ]
      },
      "request": {
        "method": "PUT",
        "url": "Observation/d4cda7f0-a5c7-7f77-eaab-8fc9f303fd70"
      }
    },
    {
      "fullUrl": "urn:uuid:1744be52-2a93-ad93-b0c3-8c0114c2399c",
      "resource": {
        "resourceType": "Observation",
        "id": "1744be52-2a93-ad93-b0c3-8c0114c2399c",
        "meta": {
          "profile": [
            "http://hl7.org/fhir/us/core/StructureDefinition/us-core-observationresults"
          ],
          "source": [
            "ecr"
          ]
        },
        "identifier": [
          {
            "system": "urn:oid:1.2.840.114350.1.13.297.3.7.6.798268.2000",
            "value": "1670845.15"
          }
        ],
        "category": [
          {
            "coding": [
              {
                "system": "http://terminology.hl7.org/CodeSystem/observation-category",
                "code": "laboratory"
              }
            ]
          }
        ],
        "status": "final",
        "code": {
          "coding": [
            {
              "code": "82208-0",
              "display": "Giardia lamblia, NAAT",
              "system": "http://loinc.org"
            }
          ]
        },
        "effectiveDateTime": "2022-09-28T20:59:43Z",
        "valueString": "Not Detected",
        "extension": [
          {
            "url": "http://hl7.org/fhir/R4/specimen.html",
            "extension": [
              {
                "url": "specimen source",
                "valueString": "Stool"
              },
              {
                "url": "specimen collection time",
                "valueDateTime": "2022-09-28T20:51:00Z"
              }
            ]
          }
        ],
        "subject": {
          "reference": "Patient/032dcf43-5413-4857-87a3-09b627b7d595"
        },
        "performer": [
          {
            "display": "PROVIDENCE ST. JOSEPH MEDICAL CENTER LABORATORY (CLIA 05D0672675)",
            "reference": "Organization/88e344ad-5524-27dc-5803-c49647c531bd"
          }
        ]
      },
      "request": {
        "method": "PUT",
        "url": "Observation/1744be52-2a93-ad93-b0c3-8c0114c2399c"
      }
    },
    {
      "fullUrl": "urn:uuid:d6fe6a19-fc1c-e45a-f588-7fcac16f4283",
      "resource": {
        "resourceType": "Observation",
        "id": "d6fe6a19-fc1c-e45a-f588-7fcac16f4283",
        "meta": {
          "profile": [
            "http://hl7.org/fhir/us/core/StructureDefinition/us-core-observationresults"
          ],
          "source": [
            "ecr"
          ]
        },
        "identifier": [
          {
            "system": "urn:oid:1.2.840.114350.1.13.297.3.7.6.798268.2000",
            "value": "1670845.16"
          }
        ],
        "category": [
          {
            "coding": [
              {
                "system": "http://terminology.hl7.org/CodeSystem/observation-category",
                "code": "laboratory"
              }
            ]
          }
        ],
        "status": "final",
        "code": {
          "coding": [
            {
              "code": "82209-8",
              "display": "Adenovirus F 40/41, NAAT",
              "system": "http://loinc.org"
            }
          ]
        },
        "effectiveDateTime": "2022-09-28T20:59:43Z",
        "valueString": "Not Detected",
        "extension": [
          {
            "url": "http://hl7.org/fhir/R4/specimen.html",
            "extension": [
              {
                "url": "specimen source",
                "valueString": "Stool"
              },
              {
                "url": "specimen collection time",
                "valueDateTime": "2022-09-28T20:51:00Z"
              }
            ]
          }
        ],
        "subject": {
          "reference": "Patient/032dcf43-5413-4857-87a3-09b627b7d595"
        },
        "performer": [
          {
            "display": "PROVIDENCE ST. JOSEPH MEDICAL CENTER LABORATORY (CLIA 05D0672675)",
            "reference": "Organization/88e344ad-5524-27dc-5803-c49647c531bd"
          }
        ]
      },
      "request": {
        "method": "PUT",
        "url": "Observation/d6fe6a19-fc1c-e45a-f588-7fcac16f4283"
      }
    },
    {
      "fullUrl": "urn:uuid:07540f21-e8c1-1675-701c-d3cd686e56b0",
      "resource": {
        "resourceType": "Observation",
        "id": "07540f21-e8c1-1675-701c-d3cd686e56b0",
        "meta": {
          "profile": [
            "http://hl7.org/fhir/us/core/StructureDefinition/us-core-observationresults"
          ],
          "source": [
            "ecr"
          ]
        },
        "identifier": [
          {
            "system": "urn:oid:1.2.840.114350.1.13.297.3.7.6.798268.2000",
            "value": "1670845.17"
          }
        ],
        "category": [
          {
            "coding": [
              {
                "system": "http://terminology.hl7.org/CodeSystem/observation-category",
                "code": "laboratory"
              }
            ]
          }
        ],
        "status": "final",
        "code": {
          "coding": [
            {
              "code": "82210-6",
              "display": "Astrovirus, NAAT",
              "system": "http://loinc.org"
            }
          ]
        },
        "effectiveDateTime": "2022-09-28T20:59:43Z",
        "valueString": "Not Detected",
        "extension": [
          {
            "url": "http://hl7.org/fhir/R4/specimen.html",
            "extension": [
              {
                "url": "specimen source",
                "valueString": "Stool"
              },
              {
                "url": "specimen collection time",
                "valueDateTime": "2022-09-28T20:51:00Z"
              }
            ]
          }
        ],
        "subject": {
          "reference": "Patient/032dcf43-5413-4857-87a3-09b627b7d595"
        },
        "performer": [
          {
            "display": "PROVIDENCE ST. JOSEPH MEDICAL CENTER LABORATORY (CLIA 05D0672675)",
            "reference": "Organization/88e344ad-5524-27dc-5803-c49647c531bd"
          }
        ]
      },
      "request": {
        "method": "PUT",
        "url": "Observation/07540f21-e8c1-1675-701c-d3cd686e56b0"
      }
    },
    {
      "fullUrl": "urn:uuid:fe118866-7b70-866f-7fcd-909933d2fda0",
      "resource": {
        "resourceType": "Observation",
        "id": "fe118866-7b70-866f-7fcd-909933d2fda0",
        "meta": {
          "profile": [
            "http://hl7.org/fhir/us/core/StructureDefinition/us-core-observationresults"
          ],
          "source": [
            "ecr"
          ]
        },
        "identifier": [
          {
            "system": "urn:oid:1.2.840.114350.1.13.297.3.7.6.798268.2000",
            "value": "1670845.18"
          }
        ],
        "category": [
          {
            "coding": [
              {
                "system": "http://terminology.hl7.org/CodeSystem/observation-category",
                "code": "laboratory"
              }
            ]
          }
        ],
        "status": "final",
        "code": {
          "coding": [
            {
              "code": "82211-4",
              "display": "Norovirus, NAAT",
              "system": "http://loinc.org"
            }
          ]
        },
        "effectiveDateTime": "2022-09-28T20:59:43Z",
        "valueString": "Not Detected",
        "extension": [
          {
            "url": "http://hl7.org/fhir/R4/specimen.html",
            "extension": [
              {
                "url": "specimen source",
                "valueString": "Stool"
              },
              {
                "url": "specimen collection time",
                "valueDateTime": "2022-09-28T20:51:00Z"
              }
            ]
          }
        ],
        "subject": {
          "reference": "Patient/032dcf43-5413-4857-87a3-09b627b7d595"
        },
        "performer": [
          {
            "display": "PROVIDENCE ST. JOSEPH MEDICAL CENTER LABORATORY (CLIA 05D0672675)",
            "reference": "Organization/88e344ad-5524-27dc-5803-c49647c531bd"
          }
        ]
      },
      "request": {
        "method": "PUT",
        "url": "Observation/fe118866-7b70-866f-7fcd-909933d2fda0"
      }
    },
    {
      "fullUrl": "urn:uuid:c20a6535-5a70-c4ad-fc59-784d65b078d5",
      "resource": {
        "resourceType": "Observation",
        "id": "c20a6535-5a70-c4ad-fc59-784d65b078d5",
        "meta": {
          "profile": [
            "http://hl7.org/fhir/us/core/StructureDefinition/us-core-observationresults"
          ],
          "source": [
            "ecr"
          ]
        },
        "identifier": [
          {
            "system": "urn:oid:1.2.840.114350.1.13.297.3.7.6.798268.2000",
            "value": "1670845.19"
          }
        ],
        "category": [
          {
            "coding": [
              {
                "system": "http://terminology.hl7.org/CodeSystem/observation-category",
                "code": "laboratory"
              }
            ]
          }
        ],
        "status": "final",
        "code": {
          "coding": [
            {
              "code": "82212-2",
              "display": "Rotavirus A, NAAT",
              "system": "http://loinc.org"
            }
          ]
        },
        "effectiveDateTime": "2022-09-28T20:59:43Z",
        "valueString": "Not Detected",
        "extension": [
          {
            "url": "http://hl7.org/fhir/R4/specimen.html",
            "extension": [
              {
                "url": "specimen source",
                "valueString": "Stool"
              },
              {
                "url": "specimen collection time",
                "valueDateTime": "2022-09-28T20:51:00Z"
              }
            ]
          }
        ],
        "subject": {
          "reference": "Patient/032dcf43-5413-4857-87a3-09b627b7d595"
        },
        "performer": [
          {
            "display": "PROVIDENCE ST. JOSEPH MEDICAL CENTER LABORATORY (CLIA 05D0672675)",
            "reference": "Organization/88e344ad-5524-27dc-5803-c49647c531bd"
          }
        ]
      },
      "request": {
        "method": "PUT",
        "url": "Observation/c20a6535-5a70-c4ad-fc59-784d65b078d5"
      }
    },
    {
      "fullUrl": "urn:uuid:54d662bc-8621-2e20-7542-d21b2b6dbe40",
      "resource": {
        "resourceType": "Observation",
        "id": "54d662bc-8621-2e20-7542-d21b2b6dbe40",
        "meta": {
          "profile": [
            "http://hl7.org/fhir/us/core/StructureDefinition/us-core-observationresults"
          ],
          "source": [
            "ecr"
          ]
        },
        "identifier": [
          {
            "system": "urn:oid:1.2.840.114350.1.13.297.3.7.6.798268.2000",
            "value": "1670845.20"
          }
        ],
        "category": [
          {
            "coding": [
              {
                "system": "http://terminology.hl7.org/CodeSystem/observation-category",
                "code": "laboratory"
              }
            ]
          }
        ],
        "status": "final",
        "code": {
          "coding": [
            {
              "code": "82195-9",
              "display": "Sapovirus, NAAT",
              "system": "http://loinc.org"
            }
          ]
        },
        "effectiveDateTime": "2022-09-28T20:59:43Z",
        "valueString": "Not Detected",
        "extension": [
          {
            "url": "http://hl7.org/fhir/R4/specimen.html",
            "extension": [
              {
                "url": "specimen source",
                "valueString": "Stool"
              },
              {
                "url": "specimen collection time",
                "valueDateTime": "2022-09-28T20:51:00Z"
              }
            ]
          }
        ],
        "subject": {
          "reference": "Patient/032dcf43-5413-4857-87a3-09b627b7d595"
        },
        "performer": [
          {
            "display": "PROVIDENCE ST. JOSEPH MEDICAL CENTER LABORATORY (CLIA 05D0672675)",
            "reference": "Organization/88e344ad-5524-27dc-5803-c49647c531bd"
          }
        ]
      },
      "request": {
        "method": "PUT",
        "url": "Observation/54d662bc-8621-2e20-7542-d21b2b6dbe40"
      }
    },
    {
      "fullUrl": "urn:uuid:a3d6cd6c-ef20-8b18-9c50-d62212af9cf0",
      "resource": {
        "resourceType": "Observation",
        "id": "a3d6cd6c-ef20-8b18-9c50-d62212af9cf0",
        "meta": {
          "profile": [
            "http://hl7.org/fhir/us/core/StructureDefinition/us-core-observationresults"
          ],
          "source": [
            "ecr"
          ]
        },
        "identifier": [
          {
            "system": "urn:oid:1.2.840.114350.1.13.297.3.7.2.798268",
            "value": "1670845"
          }
        ],
        "category": [
          {
            "coding": [
              {
                "system": "http://terminology.hl7.org/CodeSystem/observation-category",
                "code": "laboratory"
              }
            ]
          }
        ],
        "status": "final",
        "code": {
          "coding": [
            {
              "code": "56850-1",
              "display": "Lab Interpretation",
              "system": "http://loinc.org"
            }
          ]
        },
        "effectiveDateTime": "2022-09-28T20:59:43Z",
        "valueString": "Normal",
        "extension": [
          {
            "url": "http://hl7.org/fhir/R4/specimen.html",
            "extension": [
              {
                "url": "specimen source",
                "valueString": "Stool"
              },
              {
                "url": "specimen collection time",
                "valueDateTime": "2022-09-28T20:51:00Z"
              }
            ]
          }
        ],
        "subject": {
          "reference": "Patient/032dcf43-5413-4857-87a3-09b627b7d595"
        }
      },
      "request": {
        "method": "PUT",
        "url": "Observation/a3d6cd6c-ef20-8b18-9c50-d62212af9cf0"
      }
    },
    {
      "fullUrl": "urn:uuid:9ada57bb-51d8-2b29-798e-370108d87b3c",
      "resource": {
        "resourceType": "Observation",
        "id": "9ada57bb-51d8-2b29-798e-370108d87b3c",
        "meta": {
          "profile": [
            "http://hl7.org/fhir/us/core/StructureDefinition/us-core-observationresults"
          ],
          "source": [
            "ecr"
          ]
        },
        "identifier": [
          {
            "system": "urn:oid:1.2.840.114350.1.13.297.3.7.1.1040.1",
            "value": "Z41472^^72166-2"
          }
        ],
        "category": [
          {
            "coding": [
              {
                "system": "http://terminology.hl7.org/CodeSystem/observation-category",
                "code": "social-history"
              }
            ]
          }
        ],
        "status": "final",
        "code": {
          "coding": [
            {
              "code": "72166-2",
              "display": "Tobacco smoking status NHIS",
              "system": "http://loinc.org"
            }
          ]
        },
        "effectiveDateTime": "2019-04-16",
        "valueCodeableConcept": {
          "coding": [
            {
              "code": "266919005",
              "display": "Never smoked tobacco",
              "system": "http://snomed.info/sct"
            }
          ]
        },
        "subject": {
          "reference": "Patient/032dcf43-5413-4857-87a3-09b627b7d595"
        }
      },
      "request": {
        "method": "PUT",
        "url": "Observation/9ada57bb-51d8-2b29-798e-370108d87b3c"
      }
    },
    {
      "fullUrl": "urn:uuid:37171526-b247-7b79-30ce-cc392c4b5af1",
      "resource": {
        "resourceType": "Observation",
        "id": "37171526-b247-7b79-30ce-cc392c4b5af1",
        "meta": {
          "profile": [
            "http://hl7.org/fhir/us/core/StructureDefinition/us-core-observationresults"
          ],
          "source": [
            "ecr"
          ]
        },
        "identifier": [
          {
            "system": "urn:oid:1.2.840.114350.1.13.297.3.7.1.1040.8",
            "value": "Z41472^^713914004"
          }
        ],
        "category": [
          {
            "coding": [
              {
                "system": "http://terminology.hl7.org/CodeSystem/observation-category",
                "code": "social-history"
              }
            ]
          }
        ],
        "status": "final",
        "code": {
          "coding": [
            {
              "code": "88031-0",
              "display": "Smokeless tobacco status",
              "system": "http://loinc.org"
            }
          ]
        },
        "effectiveDateTime": "2019-04-16",
        "valueCodeableConcept": {
          "coding": [
            {
              "code": "451381000124107",
              "display": "Smokeless tobacco non-user",
              "system": "http://snomed.info/sct"
            }
          ]
        },
        "subject": {
          "reference": "Patient/032dcf43-5413-4857-87a3-09b627b7d595"
        }
      },
      "request": {
        "method": "PUT",
        "url": "Observation/37171526-b247-7b79-30ce-cc392c4b5af1"
      }
    },
    {
      "fullUrl": "urn:uuid:3399337e-669a-be70-29a8-f8c6ec97be6e",
      "resource": {
        "resourceType": "Observation",
        "id": "3399337e-669a-be70-29a8-f8c6ec97be6e",
        "meta": {
          "profile": [
            "http://hl7.org/fhir/us/core/StructureDefinition/us-core-observationresults"
          ],
          "source": [
            "ecr"
          ]
        },
        "identifier": [
          {
            "system": "urn:oid:1.2.840.114350.1.13.297.3.7.1.1040.12",
            "value": "Z41472^55374.98^160573003"
          }
        ],
        "category": [
          {
            "coding": [
              {
                "system": "http://terminology.hl7.org/CodeSystem/observation-category",
                "code": "social-history"
              }
            ]
          }
        ],
        "status": "final",
        "code": {
          "coding": [
            {
              "code": "11331-6",
              "display": "History of Alcohol Use",
              "system": "http://loinc.org"
            }
          ]
        },
        "effectiveDateTime": "2022-02-16",
        "valueCodeableConcept": {
          "coding": [
            {
              "code": "219006",
              "display": "Current drinker of alcohol (finding)",
              "system": "http://snomed.info/sct"
            }
          ]
        },
        "subject": {
          "reference": "Patient/032dcf43-5413-4857-87a3-09b627b7d595"
        }
      },
      "request": {
        "method": "PUT",
        "url": "Observation/3399337e-669a-be70-29a8-f8c6ec97be6e"
      }
    },
    {
      "fullUrl": "urn:uuid:",
      "resource": {
        "resourceType": "Observation",
        "meta": {
          "profile": [
            "http://hl7.org/fhir/us/core/StructureDefinition/us-core-observationresults"
          ],
          "source": [
            "ecr"
          ]
        }
      },
      "request": {
        "method": "PUT",
        "url": "Observation/"
      }
    },
    {
      "fullUrl": "urn:uuid:7a4b0e4b-ca8a-a39b-1b44-19efe2c9ee5c",
      "resource": {
        "resourceType": "Immunization",
        "id": "7a4b0e4b-ca8a-a39b-1b44-19efe2c9ee5c",
        "identifier": [
          {
            "system": "urn:oid:1.2.840.114350.1.13.297.3.7.2.768076",
            "value": "35371"
          }
        ],
        "occurrenceDateTime": "2010-04-16",
        "note": {
          "text": "DTAP-HIB-IPV (PENTACEL)"
        },
        "status": "completed",
        "primarySource": true,
        "meta": {
          "source": [
            "ecr"
          ]
        }
      },
      "request": {
        "method": "PUT",
        "url": "Immunization/7a4b0e4b-ca8a-a39b-1b44-19efe2c9ee5c"
      }
    },
    {
      "fullUrl": "urn:uuid:b5d003f7-cfe2-56a4-6e91-07307f25aa83",
      "resource": {
        "resourceType": "Immunization",
        "id": "b5d003f7-cfe2-56a4-6e91-07307f25aa83",
        "identifier": [
          {
            "system": "urn:oid:1.2.840.114350.1.13.297.3.7.2.768076",
            "value": "57643"
          }
        ],
        "occurrenceDateTime": "2020-11-10",
        "note": {
          "text": "TDAP, (ADOL/ADULT)"
        },
        "vaccineCode": {
          "coding": [
            {
              "code": "49281-400-10",
              "system": "urn:oid:2.16.840.1.113883.6.69"
            }
          ]
        },
        "status": "completed",
        "primarySource": true,
        "patient": {
          "reference": "Patient/032dcf43-5413-4857-87a3-09b627b7d595"
        },
        "meta": {
          "source": [
            "ecr"
          ]
        }
      },
      "request": {
        "method": "PUT",
        "url": "Immunization/b5d003f7-cfe2-56a4-6e91-07307f25aa83"
      }
    },
    {
      "fullUrl": "urn:uuid:cffb2ab8-483c-a93e-56c3-5cc3d11e9168",
      "resource": {
        "resourceType": "Immunization",
        "id": "cffb2ab8-483c-a93e-56c3-5cc3d11e9168",
        "identifier": [
          {
            "system": "urn:oid:1.2.840.114350.1.13.297.3.7.2.768076",
            "value": "57644"
          }
        ],
        "occurrenceDateTime": "2011-11-11",
        "note": {
          "text": "HEP A (ADULT) 2 DOSE"
        },
        "status": "completed",
        "primarySource": true,
        "meta": {
          "source": [
            "ecr"
          ]
        }
      },
      "request": {
        "method": "PUT",
        "url": "Immunization/cffb2ab8-483c-a93e-56c3-5cc3d11e9168"
      }
    },
    {
      "fullUrl": "urn:uuid:35c0d7fc-0bc0-5a24-e65e-dc30321d7e2e",
      "resource": {
        "resourceType": "Immunization",
        "id": "35c0d7fc-0bc0-5a24-e65e-dc30321d7e2e",
        "identifier": [
          {
            "system": "urn:oid:1.2.840.114350.1.13.297.3.7.2.768076",
            "value": "58353"
          }
        ],
        "occurrenceDateTime": "2020-11-16",
        "note": {
          "text": "MENINGOCOCCAL CONJUGATE,MENACTRA (PED/ADOL/ADULT)"
        },
        "vaccineCode": {
          "coding": [
            {
              "code": "50090-1890-1",
              "system": "urn:oid:2.16.840.1.113883.6.69"
            }
          ]
        },
        "status": "completed",
        "primarySource": true,
        "patient": {
          "reference": "Patient/032dcf43-5413-4857-87a3-09b627b7d595"
        },
        "meta": {
          "source": [
            "ecr"
          ]
        }
      },
      "request": {
        "method": "PUT",
        "url": "Immunization/35c0d7fc-0bc0-5a24-e65e-dc30321d7e2e"
      }
    },
    {
      "fullUrl": "urn:uuid:50fc36a0-b859-c4a4-de8f-53c149080081",
      "resource": {
        "resourceType": "Immunization",
        "id": "50fc36a0-b859-c4a4-de8f-53c149080081",
        "identifier": [
          {
            "system": "urn:oid:1.2.840.114350.1.13.297.3.7.2.768076",
            "value": "58354"
          }
        ],
        "occurrenceDateTime": "1974-03-21",
        "note": {
          "text": "HEP B (PED,ADOLESCENT) 3 DOSE"
        },
        "status": "completed",
        "primarySource": true,
        "meta": {
          "source": [
            "ecr"
          ]
        }
      },
      "request": {
        "method": "PUT",
        "url": "Immunization/50fc36a0-b859-c4a4-de8f-53c149080081"
      }
    }
  ]
}
