{"description": "Success",
    "content": {
        "application/json": {
            "examples": {
                "elr": {
                    "value": {
	"response": {
		"Status": "OK",
		"FhirResource": {
			"resourceType": "Bundle",
			"type": "batch",
			"timestamp": "2020-05-14T01:00:00-04:00",
			"identifier": {
				"value": "2020051411020600"
			},
			"id": "945561fc-cf00-ebd7-5f1c-865ab4abfcb5",
			"entry": [
				{
					"fullUrl": "urn:uuid:53d0ea89-a281-523f-f0fb-02e3ee1ef0a2",
					"resource": {
						"resourceType": "MessageHeader",
						"id": "53d0ea89-a281-523f-f0fb-02e3ee1ef0a2",
						"source": {
							"name": "WIR11.3.2",
							"_endpoint": {
								"extension": [
									{
										"url": "http://hl7.org/fhir/StructureDefinition/data-absent-reason",
										"valueCode": "unknown"
									}
								]
							}
						},
						"destination": [
							{
								"_endpoint": {
									"extension": [
										{
											"url": "http://hl7.org/fhir/StructureDefinition/data-absent-reason",
											"valueCode": "unknown"
										}
									]
								},
								"receiver": {
									"reference": "Organization/f51a22ef-628f-d014-5a33-da96b68ae53d"
								}
							}
						],
						"meta": {
							"tag": [
								{
									"code": "P",
									"system": "http://terminology.hl7.org/CodeSystem/v2-0103"
								}
							]
						},
						"eventCoding": {
							"code": "V04",
							"system": "http://terminology.hl7.org/CodeSystem/v2-0003",
							"display": "VXU^V04"
						},
						"sender": {
							"reference": "Organization/b727354b-9ca6-74fd-6b6b-ae0851c7998a"
						}
					},
					"request": {
						"method": "PUT",
						"url": "MessageHeader/53d0ea89-a281-523f-f0fb-02e3ee1ef0a2"
					}
				},
				{
					"fullUrl": "urn:uuid:d24c7a73-ebcf-8f4f-51bc-e95f47452e80",
					"resource": {
						"resourceType": "Provenance",
						"id": "d24c7a73-ebcf-8f4f-51bc-e95f47452e80",
						"text": {
							"status": "generated",
							"div": "<div xmlns=\"http://www.w3.org/1999/xhtml\"><p><span>Resource bundle generated on 2023-05-03T19:07:14.523Z using Microsoft FHIR Converter.</span><span>Template Version: TEMPLATE_VERSION_PLACEHOLDER.</span><span>Template URL: https://github.com/microsoft/FHIR-Converter/releases/download/vTEMPLATE_VERSION_PLACEHOLDER/Hl7v2DefaultTemplates.tar.gz.</span><span>Root template: VXU_V04.</span></p></div>"
						},
						"occurredDateTime": "2020-05-14T01:00:00-04:00",
						"recorded": "2020-05-14T01:00:00-04:00",
						"agent": [
							{
								"type": {
									"coding": [
										{
											"code": "author",
											"system": "http://terminology.hl7.org/CodeSystem/provenance-participant-type"
										}
									]
								},
								"who": {
									"reference": "Organization/b727354b-9ca6-74fd-6b6b-ae0851c7998a"
								}
							}
						],
						"activity": {
							"coding": [
								{
									"display": "VXU^V04^"
								}
							]
						},
						"target": [
							{
								"reference": "Bundle/945561fc-cf00-ebd7-5f1c-865ab4abfcb5"
							}
						]
					},
					"request": {
						"method": "PUT",
						"url": "Provenance/d24c7a73-ebcf-8f4f-51bc-e95f47452e80"
					}
				},
				{
					"fullUrl": "urn:uuid:b727354b-9ca6-74fd-6b6b-ae0851c7998a",
					"resource": {
						"resourceType": "Organization",
						"id": "b727354b-9ca6-74fd-6b6b-ae0851c7998a",
						"identifier": [
							{
								"value": "WIR",
								"system": "http://example.com/v2-to-fhir-converter/Identifier/WIR"
							}
						]
					},
					"request": {
						"method": "PUT",
						"url": "Organization/b727354b-9ca6-74fd-6b6b-ae0851c7998a"
					}
				},
				{
					"fullUrl": "urn:uuid:f51a22ef-628f-d014-5a33-da96b68ae53d",
					"resource": {
						"resourceType": "Organization",
						"id": "f51a22ef-628f-d014-5a33-da96b68ae53d",
						"identifier": [
							{
								"value": "WIRPH",
								"system": "http://example.com/v2-to-fhir-converter/Identifier/WIRPH"
							}
						]
					},
					"request": {
						"method": "PUT",
						"url": "Organization/f51a22ef-628f-d014-5a33-da96b68ae53d"
					}
				},
				{
					"fullUrl": "urn:uuid:3f8fc2a0-1d50-42de-bfed-9c01a071c6b6",
					"resource": {
						"resourceType": "Patient",
						"id": "3f8fc2a0-1d50-42de-bfed-9c01a071c6b6",
						"identifier": [
							{
								"value": "3054790",
								"type": {
									"coding": [
										{
											"code": "SR",
											"system": "http://terminology.hl7.org/CodeSystem/v2-0203",
											"display": "State registry ID"
										}
									]
								}
							},
							{
								"type": {
									"coding": [
										{
											"code": "PI",
											"system": "http://terminology.hl7.org/CodeSystem/v2-0203",
											"display": "Patient internal identifier"
										}
									]
								}
							}
						],
						"name": [
							{
								"family": "ZTEST",
								"given": [
									"PEDIARIX"
								]
							}
						],
						"birthDate": "2018-08-08",
						"gender": "male",
						"active": true,
						"extension": [
							{
								"url": "http://hl7.org/fhir/StructureDefinition/patient-mothersMaidenName",
								"valueString": "HEPB--DTAP"
							}
						],
						"contact": [
							{
								"address": {
									"city": "NEW GLARUS",
									"state": "WI"
								}
							}
						]
					},
					"request": {
						"method": "PUT",
						"url": "Patient/3f8fc2a0-1d50-42de-bfed-9c01a071c6b6"
					}
				},
				{
					"fullUrl": "urn:uuid:caeb94a6-281c-4bd0-1dad-4998a2f80c35",
					"resource": {
						"resourceType": "Encounter",
						"id": "caeb94a6-281c-4bd0-1dad-4998a2f80c35",
						"class": {
							"code": "R",
							"display": "Recurring patient",
							"system": "http://terminology.hl7.org/CodeSystem/v2-0004"
						},
						"status": "in-progress",
						"text": {
							"status": "generated",
							"div": "<div xmlns=\"http://www.w3.org/1999/xhtml\"><p><span>Visit Description: </span></p></div>"
						},
						"subject": {
							"reference": "Patient/3f8fc2a0-1d50-42de-bfed-9c01a071c6b6"
						}
					},
					"request": {
						"method": "PUT",
						"url": "Encounter/caeb94a6-281c-4bd0-1dad-4998a2f80c35"
					}
				},
				{
					"fullUrl": "urn:uuid:1b3b6f92-c3c9-7440-d08b-3023cd94c569",
					"resource": {
						"resourceType": "RelatedPerson",
						"id": "1b3b6f92-c3c9-7440-d08b-3023cd94c569",
						"relationship": [
							{
								"coding": [
									{
										"code": "BRO",
										"display": "brother",
										"system": "http://terminology.hl7.org/CodeSystem/v3-RoleCode"
									}
								]
							}
						],
						"address": [
							{
								"city": "NEW GLARUS",
								"state": "WI"
							}
						],
						"patient": {
							"reference": "Patient/3f8fc2a0-1d50-42de-bfed-9c01a071c6b6"
						}
					},
					"request": {
						"method": "PUT",
						"url": "RelatedPerson/1b3b6f92-c3c9-7440-d08b-3023cd94c569"
					}
				}
			]
		}
	}
}
                        }
                    }
                }
            }
}