{
  "resourceType": "Bundle",
  "type": "batch",
  "entry": [
    {
      "fullUrl": "urn:uuid:d708ffd2-b18b-fa4b-0b27-c35bf938823d",
      "resource": {
        "resourceType": "Practitioner",
        "id": "d708ffd2-b18b-fa4b-0b27-c35bf938823d",
        "meta": {
          "profile": [
            "http://hl7.org/fhir/us/core/StructureDefinition/us-core-practitioner"
          ],
          "source": [
            "ecr"
          ]
        },
        "identifier": [
          {
            "system": "urn:ietf:rfc:3986",
            "value": "urn:uuid:8e852a95-7251-58ce-807d-943245b4c94a"
          }
        ],
        "name": [
          {
            "family": "House",
            "given": [
              "Gregory"
            ],
            "prefix": [
              "Dr."
            ]
          },
          {
            "use": "usual",
            "text": "CANTON MEDICAL CENTER OF MASSACHUSETTS-North Canton Facilit"
          }
        ],
        "address": [
          {
            "line": [
              "1 MEDITECH CIRCLE"
            ],
            "city": "WESTWOOD",
            "state": "MA",
            "postalCode": "02830"
          }
        ],
        "telecom": [
          {
            "system": "email",
            "value": "PSOR@MEDITECH.COM"
          },
          {
            "system": "phone",
            "value": "+1(781)555-1234",
            "use": "work"
          }
        ]
      },
      "request": {
        "method": "PUT",
        "url": "Practitioner/d708ffd2-b18b-fa4b-0b27-c35bf938823d"
      }
    },
    {
      "fullUrl": "urn:uuid:1234",
      "resource": {
        "resourceType": "Practitioner",
        "id": "1234",
        "meta": {
          "profile": [
            "http://hl7.org/fhir/us/core/StructureDefinition/us-core-practitioner"
          ],
          "source": [
            "ecr"
          ]
        },
        "identifier": [
          {
            "system": "urn:ietf:rfc:3986",
            "value": "urn:uuid:8e852a95-7251-58ce-807d-943245b4c94a"
          }
        ],
        "name": [
          {
            "family": "SOR",
            "given": [
              "PUMSEN",
              "R"
            ],
            "prefix": [
              "MRS."
            ],
            "suffix": [
              "SR"
            ]
          },
          {
            "use": "usual",
            "text": "CANTON MEDICAL CENTER OF MASSACHUSETTS-North Canton Facilit"
          }
        ],
        "address": [
          {
            "line": [
              "1 MEDITECH CIRCLE"
            ],
            "city": "WESTWOOD",
            "state": "MA",
            "postalCode": "02830"
          }
        ],
        "telecom": [
          {
            "system": "email",
            "value": "PSOR@MEDITECH.COM"
          },
          {
            "system": "phone",
            "value": "+1(781)821-3000",
            "use": "work"
          }
        ]
      },
      "request": {
        "method": "PUT",
        "url": "Practitioner/d708ffd2-b18b-fa4b-0b27-c35bf938823d"
      }
    },
    {
      "fullUrl": "urn:uuid:9583d6c9-3c73-2bd2-b8dd-c4af7d5fefbe",
      "resource": {
        "resourceType": "CareTeam",
        "id": "9583d6c9-3c73-2bd2-b8dd-c4af7d5fefbe",
        "identifier": [
          {
            "system": "urn:ietf:rfc:3986",
            "value": "urn:uuid:bab4bd72-ab7b-11ec-81e0-9e7eef92c510"
          }
        ],
        "status": "active",
        "name": "Patient Care Team",
        "subject": {
          "reference": "Patient/e365e5f1-d103-4da5-8652-c6e30bf0397a"
        },
        "participant": [
          {
            "role": {
              "text": "admitting physician"
            },
            "member": {
              "reference": "Practitioner/1234"
            },
            "period": {
              "start": "20041116",
              "end": "20120521"
            },
            "modifierExtension": [
              {
                "url": "participant.status",
                "valueString": "active"
              }
            ]
          },
          {
            "role": {
              "text": "family"
            },
            "member": {
              "reference": "Practitioner/d708ffd2-b18b-fa4b-0b27-c35bf938823d"
            },
            "period": {
              "start": "20220324"
            },
            "modifierExtension": [
              {
                "url": "participant.status",
                "valueString": "active"
              }
            ]
          }
        ],
        "meta": {
          "source": [
            "ecr"
          ]
        }
      }
    }
  ]
}
