{
  "resourceType": "Bundle",
  "type": "batch",
  "entry": [
    {
      "fullUrl": "urn:uuid:1dd10047-2207-4eac-a993-0f706c88be5d",
      "resource": {
        "resourceType": "Composition",
        "id": "1dd10047-2207-4eac-a993-0f706c88be5d",
        "meta": {
          "profile": [
            "http://hl7.org/fhir/us/ecr/StructureDefinition/eicr-composition"
          ],
          "source": [
            "ecr"
          ]
        },
        "identifier": [
          {
            "use": "official",
            "type": {
              "coding": [
                {
                  "code": "55751-2",
                  "display": "Initial Public Health Case Report",
                  "system": "http://loinc.org"
                }
              ]
            },
            "value": "36959489|65117030"
          }
        ],
        "extension": [
          {
            "url": "http://hl7.org/fhir/StructureDefinition/composition-clinicaldocument-versionNumber",
            "valueString": "2"
          }
        ],
        "status": "final",
        "type": {
          "coding": [
            {
              "code": "55751-2",
              "display": "Initial Public Health Case Report",
              "system": "http://loinc.org"
            }
          ]
        },
        "date": "2022-05-14T12:56:38Z",
        "title": "Initial Public Health Case Report",
        "confidentiality": "N",
        "section": [
          {
            "id": "e4d19209-e7f4-4c92-3974-ad75d30f86f9",
            "title": "PROBLEMS - DIAGNOSES",
            "text": {
              "status": "generated",
              "div": "<div xmlns=\"http://www.w3.org/1999/xhtml\">PROBLEMS - DIAGNOSES</div>"
            },
            "code": {
              "coding": [
                {
                  "code": "11450-4",
                  "display": "PROBLEM LIST",
                  "system": "http://loinc.org"
                }
              ]
            },
            "mode": "snapshot",
            "entry": [
              {
                "reference": "Condition/f6192ee0-0f5e-de9c-e1f5-b3733e98f39b"
              }
            ]
          },
          {
            "id": "7660061e-2891-3532-b8db-63fca133bca6",
            "title": "ENCOUNTERS",
            "text": {
              "status": "generated",
              "div": "<div xmlns=\"http://www.w3.org/1999/xhtml\">ENCOUNTERS</div>"
            },
            "code": {
              "coding": [
                {
                  "code": "46240-8",
                  "display": "History of Encounters",
                  "system": "http://loinc.org"
                }
              ]
            },
            "mode": "snapshot"
          },
          {
            "id": "49280d2c-f8d6-9eb9-b96a-4d05f9188f0c",
            "title": "RESULTS",
            "text": {
              "status": "generated",
              "div": "<div xmlns=\"http://www.w3.org/1999/xhtml\">RESULTS</div>"
            },
            "code": {
              "coding": [
                {
                  "code": "30954-2",
                  "display": "RESULTS",
                  "system": "http://loinc.org"
                }
              ]
            },
            "mode": "snapshot",
            "entry": [
              {
                "reference": "Observation/d5ea10d8-1ceb-4f6e-605f-e8f5d8fa4d3a"
              },
              {
                "reference": "Observation/3dbc1496-c582-19da-58cd-c48821fccf3a"
              },
              {
                "reference": "Observation/b1c41413-9bf6-cf1b-f24c-c0e7bf018530"
              },
              {
                "reference": "Observation/35b356ea-a3d2-fdcb-1125-abe7b427a95b"
              },
              {
                "reference": "Observation/dfea8864-c62e-aaf7-147b-157a6714c7d8"
              },
              {
                "reference": "Observation/fea7405e-c98f-04eb-9b21-c396a9acbeb7"
              },
              {
                "reference": "Observation/34fb1c83-e01f-79ce-48e4-1e4ddf58343f"
              },
              {
                "reference": "Observation/9f8b4625-4a0e-e517-2f61-0a643bf07c5e"
              },
              {
                "reference": "Observation/0e61f8f8-5cc6-eb99-5aa1-5cdaacc6cba9"
              },
              {
                "reference": "Observation/de6db888-98e1-6f2b-de82-a623a35d6324"
              },
              {
                "reference": "Observation/7063c71f-7ff6-75c1-045f-54645c82cbaa"
              },
              {
                "reference": "Observation/0d1c42db-6db9-9579-a3e8-4d38eeaf7853"
              },
              {
                "reference": "Observation/090881d5-3f85-01a7-1eec-d05473d48731"
              },
              {
                "reference": "Observation/8c4dc57d-6412-bfd3-b057-c746c4d7d9eb"
              },
              {
                "reference": "Observation/1f898244-6fa0-2a38-6134-b29e9c801d1d"
              },
              {
                "reference": "Observation/92719f56-3c90-a5d3-09d2-d77960b035c6"
              },
              {
                "reference": "Observation/0711c2b6-f95a-e42b-23a1-718ded8a7c06"
              },
              {
                "reference": "Observation/9a67c1e6-a7fa-9f18-b0d4-b60b46ce4559"
              },
              {
                "reference": "Observation/e77c823d-5d72-f993-83a4-addba317350b"
              },
              {
                "reference": "Observation/b44c04d7-dbb2-ff34-dac2-690388da9d09"
              },
              {
                "reference": "Observation/54bb27a5-60b3-5431-eb1c-5a50457bc971"
              },
              {
                "reference": "Observation/f404e01d-130c-5a6a-66f4-95aa95e46ba2"
              },
              {
                "reference": "Observation/3b92beb6-3611-a822-04f5-a80be5aec253"
              },
              {
                "reference": "Observation/4b75a20b-ddce-162f-d08e-f61d4988e4a3"
              },
              {
                "reference": "Observation/53a7d568-ba4e-4c78-432c-409d77871dd5"
              }
            ]
          },
          {
            "id": "b4994b93-a4e6-b688-1327-a65a269c568d",
            "title": "Medications Administered",
            "text": {
              "status": "generated",
              "div": "<table><thead><tr><th>Medication Name</th><th>Medication Start Date</th></tr></thead><tbody><tr><td>docusate (Colace)</td><td>20220413132200+0000</td></tr><tr><td>acetaminophen (Tylenol)</td><td>20220413132200+0000</td></tr><tr><td>hydrocodone-acetaminophen (Norco 5 mg-325 mg oral tablet)</td><td>20220413132200+0000</td></tr><tr><td>ipratropium-albuterol (DuoNeb)</td><td>20220413132200+0000</td></tr><tr><td>hydrALAZINE</td><td>20220413132200+0000</td></tr><tr><td>labetalol</td><td>20220413132200+0000</td></tr><tr><td>levETIRAcetam (Keppra)</td><td>Unknown</td></tr><tr><td>meclizine</td><td>20220413113800+0000</td></tr><tr><td>melatonin (melatonin 3 mg oral tablet)</td><td>20220413132200+0000</td></tr><tr><td>morphine</td><td>20220413132200+0000</td></tr><tr><td>ondansetron (Zofran)</td><td>20220413132200+0000</td></tr><tr><td>simethicone (Mylicon)</td><td>20220413132200+0000</td></tr><tr><td>heparin</td><td>20220413170000+0000</td></tr><tr><td>famotidine (Pepcid)</td><td>Unknown</td></tr><tr><td>Sodium Chloride 0.9% intravenous solution 1,000 mL</td><td>20220413110600+0000</td></tr><tr><td>acetaminophen (Tylenol)</td><td>20220413110600+0000</td></tr><tr><td>heparin</td><td>20220413130000+0000</td></tr><tr><td>morphine</td><td>20220413113700+0000</td></tr><tr><td>ondansetron (Zofran)</td><td>20220413110600+0000</td></tr><tr><td>morphine</td><td>20220413105900+0000</td></tr><tr><td>prochlorperazine (Compazine)</td><td>20220413120000+0000</td></tr><tr><td>diphenhydrAMINE (Benadryl)</td><td>20220413105900+0000</td></tr><tr><td>ketorolac (Toradol)</td><td>20220413105900+0000</td></tr></tbody></table>"
            },
            "code": {
              "coding": [
                {
                  "code": "29549-3",
                  "display": "Medications Administered",
                  "system": "http://loinc.org"
                }
              ]
            },
            "mode": "snapshot",
            "entry": [
              {
                "reference": "MedicationAdministration/367be6b3-75f2-2053-63e4-f0a6f1d6bff1"
              }
            ]
          },
          {
            "id": "dd08df91-869b-46df-dd36-c5c0f2ad2eae",
            "title": "IMMUNIZATIONS",
            "text": {
              "status": "generated",
              "div": "<div xmlns=\"http://www.w3.org/1999/xhtml\">IMMUNIZATIONS</div>"
            },
            "code": {
              "coding": [
                {
                  "code": "11369-6",
                  "display": "History of immunizations",
                  "system": "http://loinc.org"
                }
              ]
            },
            "mode": "snapshot"
          },
          {
            "id": "503ddd18-aa2e-f406-3334-2b289cc7a1bd",
            "title": "SOCIAL HISTORY",
            "text": {
              "status": "generated",
              "div": "<div xmlns=\"http://www.w3.org/1999/xhtml\">SOCIAL HISTORY</div>"
            },
            "code": {
              "coding": [
                {
                  "code": "29762-2",
                  "display": "Social History",
                  "system": "http://loinc.org"
                }
              ]
            },
            "mode": "snapshot",
            "entry": [
              {
                "reference": "Observation/595b1386-09d2-7dfb-d414-fb1e5043013d"
              },
              {
                "reference": "Observation/3bd09111-ae6b-0357-cbda-526c275da43b"
              }
            ]
          },
          {
            "id": "eb08daad-1e00-4280-4846-4276acb00888",
            "title": "Plan of Treatment",
            "text": {
              "status": "generated",
              "div": "<table><caption>Pending Results</caption> <thead><tr><th>Name</th><th>Type</th><th>Priority</th><th>Associated Diagnoses</th><th>Date/Time</th></tr></thead><tbody><tr data-id='procedure11'><td>PCR SARS-CoV-2 and Influenza A/B</td><td>Lab</td><td>Routine</td><td></td><td>12/07/2021 4:16 PM CST</td></tr><tr data-id='procedure12'><td>PCR SARS-CoV-2 and Influenza A/B</td><td>Lab</td><td>Routine</td><td></td><td>12/07/2021 4:16 PM CST</td></tr><tr data-id='procedure13'><td>PCR SARS-CoV-2 and Influenza A/B</td><td>Lab</td><td>Routine</td><td></td><td>12/07/2021 4:16 PM CST</td></tr><tr data-id='procedure14'><td>PCR SARS-CoV-2 and Influenza A/B</td><td>Lab</td><td>Routine</td><td></td><td>12/07/2021 4:16 PM CST</td></tr><tr data-id='procedure15'><td>PCR SARS-CoV-2 and Influenza A/B</td><td>Lab</td><td>Routine</td><td></td><td>12/07/2021 4:16 PM CST</td></tr><tr data-id='procedure16'><td>PCR SARS-CoV-2 and Influenza A/B</td><td>Lab</td><td>Routine</td><td></td><td>12/07/2021 4:16 PM CST</td></tr><tr data-id='procedure17'><td>PCR SARS-CoV-2 and Influenza A/B</td><td>Lab</td><td>Routine</td><td></td><td>12/07/2021 4:16 PM CST</td></tr><tr data-id='procedure18'><td>PCR SARS-CoV-2 and Influenza A/B</td><td>Lab</td><td>Routine</td><td></td><td>12/07/2021 4:16 PM CST</td></tr><tr data-id='procedure19'><td>PCR SARS-CoV-2 and Influenza A/B</td><td>Lab</td><td>Routine</td><td></td><td>12/07/2021 4:16 PM CST</td></tr><tr data-id='procedure20'><td>PCR SARS-CoV-2 and Influenza A/B</td><td>Lab</td><td>Routine</td><td></td><td>12/07/2021 4:16 PM CST</td></tr><tr data-id='procedure21'><td>PCR SARS-CoV-2 and Influenza A/B</td><td>Lab</td><td>Routine</td><td></td><td>12/07/2021 4:16 PM CST</td></tr><tr data-id='procedure22'><td>PCR SARS-CoV-2 and Influenza A/B</td><td>Lab</td><td>Routine</td><td></td><td>12/07/2021 4:16 PM CST</td></tr><tr data-id='procedure23'><td>PCR SARS-CoV-2 and Influenza A/B</td><td>Lab</td><td>Routine</td><td></td><td>12/07/2021 4:16 PM CST</td></tr></tbody></table>documented as of this encounter"
            },
            "code": {
              "coding": [
                {
                  "code": "18776-5",
                  "display": "Plan of care note",
                  "system": "http://loinc.org"
                }
              ]
            },
            "mode": "snapshot"
          },
          {
            "id": "1f7f0fb5-56ac-daea-0962-3334f085966f",
            "title": "History of Present Illness",
            "text": {
              "status": "generated",
              "div": "<div xmlns=\"http://www.w3.org/1999/xhtml\">History of Present Illness</div>"
            },
            "code": {
              "coding": [
                {
                  "code": "10164-2",
                  "display": "History of Present Illness",
                  "system": "http://loinc.org"
                }
              ]
            },
            "mode": "snapshot"
          },
          {
            "id": "627dbdb9-cccc-e07d-93af-2b959c8719ea",
            "title": "Reason for Visit",
            "text": {
              "status": "generated",
              "div": "<div xmlns=\"http://www.w3.org/1999/xhtml\">Reason for Visit</div>"
            },
            "code": {
              "coding": [
                {
                  "code": "29299-5",
                  "display": "REASON FOR VISIT",
                  "system": "http://loinc.org"
                }
              ]
            },
            "mode": "snapshot",
            "extension": [
              {
                "url": "http://hl7.org/fhir/cda/ccda/StructureDefinition/2.16.840.1.113883.10.20.22.2.12",
                "valueString": "Abdominal Cramping"
              }
            ]
          },
          {
            "id": "915ea4b0-0f6f-a969-20d1-7c9d6bc2acfd",
            "title": "Reportability Response Information Section",
            "text": {
              "status": "generated",
              "div": "<div xmlns=\"http://www.w3.org/1999/xhtml\">Reportability Response Information Section</div>"
            },
            "extension": [
              {
                "url": "http://hl7.org/fhir/us/ecr/StructureDefinition/rr-composition",
                "valueIdentifier": {
                  "use": "official",
                  "type": {
                    "coding": [
                      {
                        "code": "88085-6",
                        "display": "Reportability response report Document Public health",
                        "system": "http://loinc.org"
                      }
                    ]
                  },
                  "value": "0e87b7a5-955c-4575-9def-f99f96e703ab"
                }
              },
              {
                "url": "http://hl7.org/fhir/us/ecr/StructureDefinition/rr-eicr-processing-status-extension",
                "valueCodeableConcept": {
                  "coding": [
                    {
                      "code": "RRVS19",
                      "display": "eICR processed",
                      "system": "urn:oid:2.16.840.1.114222.4.5.274"
                    }
                  ]
                }
              }
            ],
            "code": {
              "coding": [
                {
                  "code": "88085-6",
                  "display": "Reportability response report Document Public health",
                  "system": "http://loinc.org"
                }
              ]
            },
            "entry": [
              {
                "display": "Relevant Reportable Condition Observation - Influenza caused by Influenza A virus subtype H5N1 (disorder)",
                "reference": "Observation/e1530c36-cfd5-4bb4-848f-0ac5d8090d03"
              }
            ]
          }
        ],
        "subject": {
          "reference": "Patient//fdaccfeb-b28a-4e38-bf58-7c74aab32cd6"
        },
        "encounter": {
          "reference": "Encounter/1a016589-f03e-c216-eb37-306903e8f437"
        },
        "custodian": {
          "reference": "Organization/91c4d2ba-e324-5b1a-a4cb-84d9690511d3"
        },
        "author": [
          {
            "reference": "Practitioner/79842b6e-724b-8d57-dd2a-8d4b915f0558"
          }
        ]
      },
      "request": {
        "method": "PUT",
        "url": "Composition/1dd10047-2207-4eac-a993-0f706c88be5d"
      }
    },
    {
      "fullUrl": "urn:uuid:b5c77b86-2764-79f9-10bf-5da5e63eb7c1",
      "resource": {
        "resourceType": "Organization",
        "id": "b5c77b86-2764-79f9-10bf-5da5e63eb7c1",
        "name": "Sanofi Pasteur",
        "meta": {
          "source": [
            "ecr"
          ]
        }
      },
      "request": {
        "method": "PUT",
        "url": "Organization/b5c77b86-2764-79f9-10bf-5da5e63eb7c1"
      }
    },
    {
      "fullUrl": "urn:uuid:7a4b0e4b-ca8a-a39b-1b44-19efe2c9ee5c",
      "resource": {
        "resourceType": "Immunization",
        "id": "7a4b0e4b-ca8a-a39b-1b44-19efe2c9ee5c",
        "identifier": [
          {
            "system": "urn:oid:1.2.840.114350.1.13.297.3.7.2.768076",
            "value": "35371"
          }
        ],
        "occurrenceDateTime": "2010-04-16",
        "note": {
          "text": "DTAP-HIB-IPV (PENTACEL)"
        },
        "status": "completed",
        "primarySource": true,
        "meta": {
          "source": [
            "ecr"
          ]
        }
      },
      "request": {
        "method": "PUT",
        "url": "Immunization/7a4b0e4b-ca8a-a39b-1b44-19efe2c9ee5c"
      }
    },
    {
      "fullUrl": "urn:uuid:b5d003f7-cfe2-56a4-6e91-07307f25aa83",
      "resource": {
        "resourceType": "Immunization",
        "id": "b5d003f7-cfe2-56a4-6e91-07307f25aa83",
        "identifier": [
          {
            "system": "urn:oid:1.2.840.114350.1.13.297.3.7.2.768076",
            "value": "57643"
          }
        ],
        "occurrenceDateTime": "2020-11-10",
        "note": {
          "text": "TDAP, (ADOL/ADULT)"
        },
        "vaccineCode": {
          "coding": [
            {
              "code": "49281-400-10",
              "system": "urn:oid:2.16.840.1.113883.6.69"
            }
          ]
        },
        "lotNumber": "369258741",
        "manufacturer": {
          "reference": "Organization/b5c77b86-2764-79f9-10bf-5da5e63eb7c1"
        },
        "protocolApplied": [
          {
            "doseNumberPositiveInt": "1"
          }
        ],
        "status": "completed",
        "primarySource": true,
        "patient": {
          "reference": "Patient/fdaccfeb-b28a-4e38-bf58-7c74aab32cd6"
        },
        "meta": {
          "source": [
            "ecr"
          ]
        }
      },
      "request": {
        "method": "PUT",
        "url": "Immunization/b5d003f7-cfe2-56a4-6e91-07307f25aa83"
      }
    },
    {
      "fullUrl": "urn:uuid:cffb2ab8-483c-a93e-56c3-5cc3d11e9168",
      "resource": {
        "resourceType": "Immunization",
        "id": "cffb2ab8-483c-a93e-56c3-5cc3d11e9168",
        "identifier": [
          {
            "system": "urn:oid:1.2.840.114350.1.13.297.3.7.2.768076",
            "value": "57644"
          }
        ],
        "occurrenceDateTime": "2011-11-11",
        "note": {
          "text": "HEP A (ADULT) 2 DOSE"
        },
        "status": "completed",
        "primarySource": true,
        "meta": {
          "source": [
            "ecr"
          ]
        }
      },
      "request": {
        "method": "PUT",
        "url": "Immunization/cffb2ab8-483c-a93e-56c3-5cc3d11e9168"
      }
    },
    {
      "fullUrl": "urn:uuid:35c0d7fc-0bc0-5a24-e65e-dc30321d7e2e",
      "resource": {
        "resourceType": "Immunization",
        "id": "35c0d7fc-0bc0-5a24-e65e-dc30321d7e2e",
        "identifier": [
          {
            "system": "urn:oid:1.2.840.114350.1.13.297.3.7.2.768076",
            "value": "58353"
          }
        ],
        "occurrenceDateTime": "2020-11-16",
        "note": {
          "text": "MENINGOCOCCAL CONJUGATE,MENACTRA                                        (PED/ADOL/ADULT)"
        },
        "vaccineCode": {
          "coding": [
            {
              "code": "50090-1890-1",
              "system": "urn:oid:2.16.840.1.113883.6.69"
            }
          ]
        },
        "status": "completed",
        "primarySource": true,
        "patient": {
          "reference": "Patient/fdaccfeb-b28a-4e38-bf58-7c74aab32cd6"
        },
        "meta": {
          "source": [
            "ecr"
          ]
        }
      },
      "request": {
        "method": "PUT",
        "url": "Immunization/35c0d7fc-0bc0-5a24-e65e-dc30321d7e2e"
      }
    },
    {
      "fullUrl": "urn:uuid:50fc36a0-b859-c4a4-de8f-53c149080081",
      "resource": {
        "resourceType": "Immunization",
        "id": "50fc36a0-b859-c4a4-de8f-53c149080081",
        "identifier": [
          {
            "system": "urn:oid:1.2.840.114350.1.13.297.3.7.2.768076",
            "value": "58354"
          }
        ],
        "occurrenceDateTime": "1974-03-21",
        "note": {
          "text": "HEP B (PED,ADOLESCENT) 3 DOSE"
        },
        "status": "completed",
        "primarySource": true,
        "meta": {
          "source": [
            "ecr"
          ]
        }
      },
      "request": {
        "method": "PUT",
        "url": "Immunization/50fc36a0-b859-c4a4-de8f-53c149080081"
      }
    },
    {
      "fullUrl": "urn:uuid:96d9c86d-44a7-468f-54a0-7967b4a9d74e",
      "resource": {
        "resourceType": "Observation",
        "id": "96d9c86d-44a7-468f-54a0-7967b4a9d74e",
        "meta": {
          "profile": [
            "http://hl7.org/fhir/us/core/StructureDefinition/us-core-observationresults"
          ],
          "source": [
            "ecr"
          ]
        },
        "identifier": [
          {
            "system": "urn:ietf:rfc:3986",
            "value": "urn:uuid:17867d40-a3bf-11ec-81e0-9e7eef92c510"
          }
        ],
        "category": [
          {
            "coding": [
              {
                "system": "http://terminology.hl7.org/CodeSystem/observation-category",
                "code": "vital-signs"
              }
            ]
          }
        ],
        "status": "final",
        "code": {
          "coding": [
            {
              "code": "8302-2",
              "display": "Height",
              "system": "http://loinc.org"
            }
          ]
        },
        "effectiveDateTime": "2022-03-14T13:48:00-04:00",
        "valueQuantity": {
          "value": 65,
          "unit": "[in_i]"
        },
        "subject": {
          "reference": "Patient/fdaccfeb-b28a-4e38-bf58-7c74aab32cd6"
        }
      },
      "request": {
        "method": "PUT",
        "url": "Observation/96d9c86d-44a7-468f-54a0-7967b4a9d74e"
      }
    },
    {
      "fullUrl": "urn:uuid:b56ecbc3-d9d6-9ee0-72a2-d593a1319384",
      "resource": {
        "resourceType": "Observation",
        "id": "b56ecbc3-d9d6-9ee0-72a2-d593a1319384",
        "meta": {
          "profile": [
            "http://hl7.org/fhir/us/core/StructureDefinition/us-core-observationresults"
          ],
          "source": [
            "ecr"
          ]
        },
        "identifier": [
          {
            "system": "urn:ietf:rfc:3986",
            "value": "urn:uuid:17867d41-a3bf-11ec-81e0-9e7eef92c510"
          }
        ],
        "category": [
          {
            "coding": [
              {
                "system": "http://terminology.hl7.org/CodeSystem/observation-category",
                "code": "vital-signs"
              }
            ]
          }
        ],
        "status": "final",
        "code": {
          "coding": [
            {
              "code": "8302-2",
              "display": "Height",
              "system": "http://loinc.org"
            }
          ]
        },
        "effectiveDateTime": "2022-03-14T13:48:00-04:00",
        "valueQuantity": {
          "value": 165.1,
          "unit": "cm"
        },
        "subject": {
          "reference": "Patient/fdaccfeb-b28a-4e38-bf58-7c74aab32cd6"
        }
      },
      "request": {
        "method": "PUT",
        "url": "Observation/b56ecbc3-d9d6-9ee0-72a2-d593a1319384"
      }
    },
    {
      "fullUrl": "urn:uuid:f6629e93-53d1-acc9-e012-d3828d3bb525",
      "resource": {
        "resourceType": "Observation",
        "id": "f6629e93-53d1-acc9-e012-d3828d3bb525",
        "meta": {
          "profile": [
            "http://hl7.org/fhir/us/core/StructureDefinition/us-core-observationresults"
          ],
          "source": [
            "ecr"
          ]
        },
        "identifier": [
          {
            "system": "urn:ietf:rfc:3986",
            "value": "urn:uuid:17867d42-a3bf-11ec-81e0-9e7eef92c510"
          }
        ],
        "category": [
          {
            "coding": [
              {
                "system": "http://terminology.hl7.org/CodeSystem/observation-category",
                "code": "vital-signs"
              }
            ]
          }
        ],
        "status": "final",
        "code": {
          "coding": [
            {
              "code": "29463-7",
              "display": "Weight",
              "system": "http://loinc.org"
            }
          ]
        },
        "effectiveDateTime": "2022-03-14T13:48:00-04:00",
        "valueQuantity": {
          "value": 150,
          "unit": "[lb_av]"
        },
        "subject": {
          "reference": "Patient/fdaccfeb-b28a-4e38-bf58-7c74aab32cd6"
        }
      },
      "request": {
        "method": "PUT",
        "url": "Observation/f6629e93-53d1-acc9-e012-d3828d3bb525"
      }
    },
    {
      "fullUrl": "urn:uuid:a7520460-214e-886f-3b3f-7b32d672a5f2",
      "resource": {
        "resourceType": "Observation",
        "id": "a7520460-214e-886f-3b3f-7b32d672a5f2",
        "meta": {
          "profile": [
            "http://hl7.org/fhir/us/core/StructureDefinition/us-core-observationresults"
          ],
          "source": [
            "ecr"
          ]
        },
        "identifier": [
          {
            "system": "urn:ietf:rfc:3986",
            "value": "urn:uuid:17867d43-a3bf-11ec-81e0-9e7eef92c510"
          }
        ],
        "category": [
          {
            "coding": [
              {
                "system": "http://terminology.hl7.org/CodeSystem/observation-category",
                "code": "vital-signs"
              }
            ]
          }
        ],
        "status": "final",
        "code": {
          "coding": [
            {
              "code": "29463-7",
              "display": "Weight",
              "system": "http://loinc.org"
            }
          ]
        },
        "effectiveDateTime": "2022-03-14T13:48:00-04:00",
        "valueQuantity": {
          "value": 68.039,
          "unit": "kg"
        },
        "subject": {
          "reference": "Patient/fdaccfeb-b28a-4e38-bf58-7c74aab32cd6"
        }
      },
      "request": {
        "method": "PUT",
        "url": "Observation/a7520460-214e-886f-3b3f-7b32d672a5f2"
      }
    },
    {
      "fullUrl": "urn:uuid:dcd0af93-2eca-0d28-f1fe-5f2b65c7d182",
      "resource": {
        "resourceType": "Observation",
        "id": "dcd0af93-2eca-0d28-f1fe-5f2b65c7d182",
        "meta": {
          "profile": [
            "http://hl7.org/fhir/us/core/StructureDefinition/us-core-observationresults"
          ],
          "source": [
            "ecr"
          ]
        },
        "identifier": [
          {
            "system": "urn:ietf:rfc:3986",
            "value": "urn:uuid:17867d44-a3bf-11ec-81e0-9e7eef92c510"
          }
        ],
        "category": [
          {
            "coding": [
              {
                "system": "http://terminology.hl7.org/CodeSystem/observation-category",
                "code": "vital-signs"
              }
            ]
          }
        ],
        "status": "final",
        "code": {
          "coding": [
            {
              "code": "39156-5",
              "display": "BMI (Body Mass Index)",
              "system": "http://loinc.org"
            }
          ]
        },
        "effectiveDateTime": "2022-03-14T13:48:00-04:00",
        "valueQuantity": {
          "value": 25,
          "unit": "kg/m2"
        },
        "subject": {
          "reference": "Patient/fdaccfeb-b28a-4e38-bf58-7c74aab32cd6"
        }
      },
      "request": {
        "method": "PUT",
        "url": "Observation/dcd0af93-2eca-0d28-f1fe-5f2b65c7d182"
      }
    },
    {
      "fullUrl": "urn:uuid:fb4c40a4-602f-9cf0-11c0-903b1f3d9e94",
      "resource": {
        "resourceType": "Condition",
        "id": "fb4c40a4-602f-9cf0-11c0-903b1f3d9e94",
        "identifier": [
          {
            "system": "urn:oid:1.2.840.114350.1.13.297.3.7.2.768076",
            "value": "35372"
          }
        ],
        "clinicalStatus": {
          "coding": [
            {
              "code": "55561003",
              "display": "Active",
              "system": "http://snomed.info/sct"
            }
          ]
        },
        "category": [
          {
            "coding": [
              {
                "code": "problem-item-list",
                "display": "Problem List Item",
                "system": "http://hl7.org/fhir/us/core/ValueSet/us-core-condition-category"
              }
            ]
          }
        ],
        "code": {
          "coding": [
            {
              "code": "S93.411A",
              "display": "Sprain of calcaneofibular ligament of right ankle",
              "system": "urn:oid:2.16.840.1.113883.6.90"
            }
          ]
        },
        "extension": [
          {
            "url": "https://reportstream.cdc.gov/fhir/StructureDefinition/condition-code",
            "coding": [
              {
                "code": "263133002",
                "system": "http://snomed.info/sct"
              }
            ]
          }
        ],
        "onsetDateTime": "2019-04-16",
        "subject": {
          "reference": "Patient/fdaccfeb-b28a-4e38-bf58-7c74aab32cd6"
        },
        "meta": {
          "source": [
            "ecr"
          ]
        }
      },
      "request": {
        "method": "PUT",
        "url": "Condition/fb4c40a4-602f-9cf0-11c0-903b1f3d9e94"
      }
    },
    {
      "fullUrl": "urn:uuid:3f9a9eb2-f922-634e-c26f-78392130df06",
      "resource": {
        "resourceType": "Condition",
        "id": "3f9a9eb2-f922-634e-c26f-78392130df06",
        "identifier": [
          {
            "system": "urn:oid:1.2.840.114350.1.13.297.3.7.2.768076",
            "value": "35774"
          }
        ],
        "clinicalStatus": {
          "coding": [
            {
              "code": "55561003",
              "display": "Active",
              "system": "http://snomed.info/sct"
            }
          ]
        },
        "category": [
          {
            "coding": [
              {
                "code": "problem-item-list",
                "display": "Problem List Item",
                "system": "http://hl7.org/fhir/us/core/ValueSet/us-core-condition-category"
              }
            ]
          }
        ],
        "code": {
          "coding": [
            {
              "code": "M25.569",
              "display": "Knee pain",
              "system": "urn:oid:2.16.840.1.113883.6.90"
            }
          ]
        },
        "onsetDateTime": "2019-04-29",
        "subject": {
          "reference": "Patient/fdaccfeb-b28a-4e38-bf58-7c74aab32cd6"
        },
        "meta": {
          "source": [
            "ecr"
          ]
        }
      },
      "request": {
        "method": "PUT",
        "url": "Condition/3f9a9eb2-f922-634e-c26f-78392130df06"
      }
    },
    {
      "fullUrl": "urn:uuid:b40f0081-4052-4971-3f3b-e3d9f5e1e44d",
      "resource": {
        "resourceType": "Procedure",
        "id": "b40f0081-4052-4971-3f3b-e3d9f5e1e44d",
        "meta": {
          "profile": [
            "http://hl7.org/fhir/us/core/StructureDefinition/us-core-procedure"
          ],
          "source": [
            "ecr"
          ]
        },
        "identifier": [
          {
            "system": "urn:oid:1.2.840.114350.1.13.502.3.7.1.1988.1",
            "value": "2884257^"
          }
        ],
        "status": "completed",
        "code": {
          "coding": [
            {
              "code": "86308",
              "display": "HC HETEROPHILE ANTIBODIES SCREENING",
              "system": "http://www.ama-assn.org/go/cpt"
            }
          ]
        },
        "performedDateTime": "2022-06-16T17:53:00Z",
        "reason": [
          {
            "display": "Routine general medical examination at a health care facility",
            "reference": "7cda2e3e-5d91-428f-8abe-517846d4749e"
          }
        ],
        "subject": {
          "reference": "Patient/fdaccfeb-b28a-4e38-bf58-7c74aab32cd6"
        }
      },
      "request": {
        "method": "PUT",
        "url": "Procedure/b40f0081-4052-4971-3f3b-e3d9f5e1e44d"
      }
    },
    {
      "fullUrl": "urn:uuid:360f0f52-0434-58ee-1e51-e093e4cf4847",
      "resource": {
        "resourceType": "CarePlan",
        "id": "360f0f52-0434-58ee-1e51-e093e4cf4847",
        "status": "unknown",
        "intent": "proposal",
        "subject": {
          "reference": "Patient/1317daf3-8ee2-4583-8e95-7e327a87e1f1"
        },
        "activity": [
          {
            "detail": {
              "status": "scheduled",
              "scheduledString": "202103141708-0400"
            },
            "extension": [
              {
                "url": "dibbs.orderedDate",
                "valueString": "20210414160302-0400"
              }
            ]
          },
          {
            "detail": {
              "code": {
                "coding": [
                  {
                    "code": "313952006",
                    "display": "Ammonia plas",
                    "system": "http://snomed.info/sct"
                  }
                ]
              },
              "status": "scheduled",
              "scheduledString": "202101250938-0400"
            },
            "extension": [
              {
                "url": "dibbs.orderedDate",
                "valueString": "20210314170826-0400"
              }
            ]
          }
        ],
        "meta": {
          "source": [
            "ecr"
          ]
        }
      },
      "request": {
        "method": "PUT",
        "url": "CarePlan/360f0f52-0434-58ee-1e51-e093e4cf4847"
      }
    },
    {
      "fullUrl": "urn:uuid:367be6b3-75f2-2053-63e4-f0a6f1d6bff1",
      "resource": {
        "resourceType": "MedicationAdministration",
        "id": "367be6b3-75f2-2053-63e4-f0a6f1d6bff1",
        "identifier": [
          {
            "system": "urn:oid:1.2.840.114350.1.13.202.3.7.2.798268",
            "value": "476858947"
          }
        ],
        "status": "completed",
        "effectivePeriod": {
          "start": "2022-09-29T04:00:00Z",
          "end": "2022-09-29T03:37:00Z"
        },
        "dosage": {
          "route": {
            "coding": [
              {
                "code": "C38288",
                "display": "Oral",
                "system": "urn:oid:2.16.840.1.113883.3.26.1.1"
              }
            ]
          },
          "dose": {
            "value": 325,
            "unit": "mg"
          }
        },
        "subject": {
          "reference": "Patient/ae8e3ddc-1bac-4d08-a932-36e7b3b42581"
        },
        "medicationReference": {
          "reference": "Medication/be901c69-c202-4d67-105a-b728c2618183"
        },
        "meta": {
          "source": [
            "ecr"
          ]
        }
      },
      "request": {
        "method": "PUT",
        "url": "MedicationAdministration/367be6b3-75f2-2053-63e4-f0a6f1d6bff1"
      }
    },
    {
      "fullUrl": "urn:uuid:be901c69-c202-4d67-105a-b728c2618183",
      "resource": {
        "resourceType": "Medication",
        "id": "be901c69-c202-4d67-105a-b728c2618183",
        "code": {
          "coding": [
            {
              "code": "212033",
              "display": "aspirin tablet 325 mg",
              "system": "http://www.nlm.nih.gov/research/umls/rxnorm"
            },
            {
              "code": "10135-150-01",
              "system": "urn:oid:2.16.840.1.113883.6.69"
            },
            {
              "code": "172480",
              "system": "urn:oid:2.16.840.1.113883.6.208"
            }
          ]
        },
        "meta": {
          "source": [
            "ecr"
          ]
        }
      },
      "request": {
        "method": "PUT",
        "url": "Medication/be901c69-c202-4d67-105a-b728c2618183"
      }
    }
  ]
}
